Time_s,RF,BF,VM,ST,FX
0.0,0.0007,-0.0083,0.0045,-0.0091,57.6
0.001,-0.0008,-0.0038,0.0007,-0.0046,57.5
0.002,-0.0008,-0.0068,0.0015,-0.0023,57.3
0.003,-0.0008,-0.0053,0.0045,-0.0038,57.1
0.004,0.0007,0.0015,0.0082,-0.0075,56.9
0.005,0.003,0.0052,0.009,-0.0083,56.7
0.006,0.0015,0.003,0.0067,-0.0038,56.5
0.007,0.0015,0.0022,0.0022,-0.0023,56.3
0.008,0.0015,0.003,-0.0008,0.0015,56.1
0.009,0.0022,0.0045,-0.0008,0.0082,55.9
0.01,0.0022,0.0067,-0.0023,0.0082,55.7
0.011,0.0,0.006,0.0007,0.0007,55.5
0.012,0.0007,0.0045,0.0015,-0.0068,55.3
0.013,0.0022,0.0067,-0.0015,-0.0083,55.1
0.014,0.0015,0.0097,-0.0038,-0.0015,54.9
0.015,0.0045,0.0127,-0.0068,0.0067,54.7
0.016,0.003,0.0105,-0.006,0.006,54.5
0.017,0.0045,0.0007,-0.0098,-0.0015,54.3
0.018,0.003,-0.0053,-0.012,0.0022,54.1
0.019,0.0007,-0.0091,-0.0143,0.003,53.9
0.02,0.0007,-0.0105,-0.015,-0.003,53.7
0.021,-0.0008,-0.003,-0.0143,0.0,53.5
0.022,0.0,0.003,-0.0135,0.0067,53.2
0.023,0.0007,0.003,-0.0038,0.0097,53.0
0.024,0.0022,0.0,-0.0053,0.012,52.7
0.025,0.0052,-0.0008,-0.0105,0.0067,52.5
0.026,0.0052,-0.0008,-0.0165,-0.0068,52.2
0.027,0.009,0.003,-0.0225,-0.0248,52.0
0.028,0.0105,0.0067,-0.0225,-0.0315,51.7
0.029,0.012,0.0082,-0.0256,-0.0218,51.5
0.03,0.0105,0.009,-0.0278,-0.0068,51.2
0.031,0.0105,0.0067,-0.024,0.0082,50.9
0.032,0.0112,0.0082,-0.0181,0.0217,50.7
0.033,0.0127,0.009,-0.0181,0.0262,50.4
0.034,0.0165,0.0075,-0.0173,0.0232,50.2
0.035,0.0135,0.0052,-0.0165,0.006,49.9
0.036,0.0127,0.0052,-0.0128,-0.0263,49.7
0.037,0.009,0.009,-0.0038,-0.0608,49.5
0.038,0.0082,0.015,-0.0053,-0.0713,49.2
0.039,0.0045,0.0142,-0.0098,-0.0346,49.0
0.04,0.0015,0.009,-0.0128,0.0135,48.6
0.041,0.003,0.0067,-0.0135,0.057,48.4
0.042,0.0007,0.0022,-0.0105,0.0817,48.1
0.043,0.0007,-0.0023,-0.0083,0.0585,47.8
0.044,-0.003,-0.0053,-0.0053,0.0277,47.5
0.045,-0.0053,-0.0083,-0.0015,0.0045,47.2
0.046,-0.006,-0.0053,0.0007,-0.0046,46.9
0.047,-0.0053,-0.0083,0.003,0.0015,46.6
0.048,-0.0046,-0.012,0.006,-0.0015,46.3
0.049,-0.003,-0.015,-0.0038,-0.0038,45.9
0.05,0.0022,-0.0128,-0.0173,-0.0083,45.6
0.051,0.0022,-0.0068,-0.0053,-0.0053,45.4
0.052,-0.0046,-0.012,0.0195,0.0052,45.0
0.053,-0.0105,-0.0105,0.0262,0.0015,44.7
0.054,-0.0105,-0.0068,0.0247,-0.0053,44.4
0.055,-0.0083,-0.006,0.021,-0.0046,44.1
0.056,-0.0083,-0.003,0.0202,-0.0023,43.8
0.057,-0.0083,-0.003,0.0202,-0.0046,43.5
0.058,-0.0075,-0.0015,0.0195,-0.0075,43.2
0.059,-0.0091,-0.0008,0.0232,-0.0098,42.9
0.06,-0.0091,-0.0008,0.0255,-0.0135,42.6
0.061,-0.0083,0.0015,0.0195,-0.024,42.3
0.062,-0.0046,0.0067,0.0105,-0.0293,41.9
0.063,-0.003,0.0097,0.009,-0.0143,41.5
0.064,-0.0008,0.0075,0.0007,0.0,41.2
0.065,0.0007,0.0045,-0.003,0.006,40.8
0.066,-0.0046,0.006,-0.0068,0.0082,40.4
0.067,-0.012,0.0037,-0.015,0.0105,40.0
0.068,-0.0143,-0.0046,-0.0195,0.0067,39.7
0.069,-0.0075,-0.0113,-0.0285,-0.0075,39.3
0.07,-0.0046,-0.0105,-0.033,-0.0113,39.0
0.071,0.0,-0.0046,-0.0293,-0.0068,38.6
0.072,0.0045,0.0007,-0.024,-0.0015,38.2
0.073,0.0067,0.0,-0.0225,0.003,37.9
0.074,0.0052,-0.0023,-0.0233,-0.0008,37.5
0.075,0.0037,-0.0015,-0.0203,-0.0053,37.1
0.076,0.006,-0.0008,-0.0128,-0.0023,36.8
0.077,0.0075,0.0007,-0.0008,-0.0046,36.4
0.078,0.0127,0.003,0.0142,-0.0113,36.0
0.079,0.0127,0.0015,0.0225,-0.015,35.7
0.08,0.0127,0.0015,0.0232,-0.0143,35.3
0.081,0.0157,-0.0008,0.0187,-0.0098,35.0
0.082,0.0195,-0.0015,0.0187,-0.0023,34.6
0.083,0.0232,0.0007,0.024,-0.0015,34.2
0.084,0.0247,0.0067,0.0307,-0.0053,33.8
0.085,0.024,0.0067,0.03,-0.0068,33.4
0.086,0.0157,0.003,0.0142,-0.0015,33.1
0.087,0.0045,0.0037,0.0022,-0.006,32.7
0.088,-0.0023,0.0067,-0.0023,-0.0361,32.4
0.089,-0.0075,0.0082,-0.0091,-0.0691,31.9
0.09,-0.0158,0.003,-0.0128,-0.0773,31.6
0.091,-0.0195,0.0007,-0.0188,-0.054,31.2
0.092,-0.0181,0.0015,-0.021,0.0022,30.8
0.093,-0.0165,-0.003,-0.0195,0.0585,30.5
0.094,-0.0128,-0.0053,-0.0225,0.0832,30.1
0.095,-0.0075,-0.0083,-0.0181,0.0795,29.7
0.096,-0.0053,-0.012,-0.0091,0.0592,29.3
0.097,-0.0046,-0.012,0.0037,0.0262,29.0
0.098,-0.0038,-0.012,0.0052,-0.0083,28.6
0.099,0.003,-0.0053,-0.0105,-0.0233,28.2
0.1,0.0045,0.003,-0.0091,-0.021,27.8
0.101,-0.0015,0.003,0.0007,-0.0113,27.4
0.102,-0.0023,0.0052,0.0007,0.0045,27.1
0.103,-0.0015,0.0022,-0.0091,0.0195,26.7
0.104,0.0,-0.006,-0.0165,0.0202,26.3
0.105,0.0045,-0.006,-0.0143,0.0007,25.9
0.106,0.0075,-0.0046,-0.0046,-0.0143,25.6
0.107,0.0052,-0.003,0.0045,-0.012,25.2
0.108,0.0022,-0.0015,0.0105,-0.0068,24.8
0.109,0.0007,0.0007,0.0165,0.003,24.4
0.11,-0.0008,0.0037,0.0285,0.0127,24.0
0.111,-0.0083,-0.0015,0.0427,0.012,23.6
0.112,-0.0188,-0.003,0.0442,0.0112,23.2
0.113,-0.015,0.0007,0.0367,0.009,22.9
0.114,-0.0098,-0.0008,0.0217,0.0082,22.5
0.115,-0.0075,-0.0015,0.003,0.0015,22.1
0.116,-0.0046,-0.0046,-0.0068,-0.0008,21.7
0.117,-0.0015,-0.0075,-0.0083,0.0,21.3
0.118,-0.0046,-0.0091,0.0015,-0.0046,20.9
0.119,-0.0128,-0.0105,0.0127,-0.0053,20.6
0.12,-0.0038,-0.0068,0.0232,-0.006,20.1
0.121,0.012,-0.0038,0.027,-0.003,19.8
0.122,0.0172,-0.0046,0.0195,0.0007,19.4
0.123,0.0195,-0.0023,0.015,0.003,19.1
0.124,0.0202,0.003,0.009,0.003,18.7
0.125,0.0142,0.0067,0.0045,-0.0015,18.3
0.126,0.006,0.0067,0.0067,-0.0068,18.0
0.127,-0.0053,0.0067,0.012,-0.0128,17.6
0.128,-0.0128,0.0082,0.009,-0.0218,17.2
0.129,-0.0188,0.012,0.009,-0.0293,16.9
0.13,-0.0188,0.0135,0.0067,-0.0218,16.5
0.131,-0.0091,0.0127,0.0052,-0.006,16.2
0.132,-0.0053,0.0075,0.0037,0.0112,15.8
0.133,-0.0008,0.0022,-0.003,0.0292,15.4
0.134,0.003,-0.003,-0.0008,0.0457,15.1
0.135,0.0037,-0.0105,-0.0046,0.0495,14.7
0.136,0.0082,-0.0158,-0.0083,0.0292,14.3
0.137,0.0142,-0.024,-0.003,0.0082,13.9
0.138,0.0157,-0.0233,-0.0008,0.003,13.6
0.139,0.0105,-0.0091,-0.0015,0.0015,13.2
0.14,0.0052,-0.0023,-0.0083,-0.0008,12.8
0.141,0.0007,0.0037,-0.0075,0.0037,12.6
0.142,-0.0075,0.0082,-0.0158,0.0037,12.3
0.143,-0.0165,0.0082,-0.0233,-0.0015,12.1
0.144,-0.0143,0.0097,-0.0181,-0.0046,11.8
0.145,-0.0113,0.009,-0.0203,-0.0068,11.5
0.146,-0.012,0.0082,-0.0181,-0.0075,11.2
0.147,-0.012,0.0052,-0.0091,-0.0083,11.0
0.148,-0.0091,0.0007,-0.0008,-0.0105,10.7
0.149,-0.0008,-0.0008,0.0067,-0.0046,10.4
0.15,0.0142,0.0015,0.0075,-0.003,10.2
0.151,0.0285,0.0045,0.0045,-0.003,9.9
0.152,0.0352,0.0075,-0.003,0.0015,9.6
0.153,0.039,0.009,-0.0091,0.006,9.4
0.154,0.045,0.009,-0.0218,0.0082,9.1
0.155,0.0465,0.0097,-0.0465,0.0015,8.8
0.156,0.0427,0.0112,-0.0743,-0.0068,8.5
0.157,0.039,0.0082,-0.084,-0.0098,8.3
0.158,0.0315,0.0067,-0.0623,-0.0068,8.0
0.159,0.0067,0.003,-0.012,-0.0083,7.7
0.16,-0.0158,-0.0015,0.024,-0.021,7.4
0.161,-0.03,-0.0023,0.036,-0.0218,7.4
0.162,-0.042,-0.0068,0.0495,-0.0105,7.3
0.163,-0.0503,-0.006,0.0562,0.0052,7.2
0.164,-0.0585,-0.0068,0.0667,0.027,7.1
0.165,-0.06,-0.012,0.063,0.033,7.0
0.166,-0.0465,-0.012,0.054,0.021,6.9
0.167,-0.0308,-0.0098,0.039,0.0075,6.8
0.168,-0.015,-0.003,0.0202,0.0,6.7
0.169,-0.0091,0.0015,0.0045,0.003,6.7
0.17,-0.0091,0.0052,-0.024,0.0105,6.6
0.171,-0.0091,0.006,-0.0233,0.009,6.5
0.172,-0.0083,0.0007,-0.0083,0.0067,6.4
0.173,-0.0023,-0.003,0.0022,0.0142,6.3
0.174,-0.006,-0.006,0.009,0.0127,6.3
0.175,-0.0091,-0.0068,0.0045,0.0007,6.2
0.176,-0.003,-0.0038,0.0052,-0.0105,6.1
0.177,0.0067,-0.0068,0.0127,-0.0218,6.0
0.178,0.0127,-0.0128,0.0202,-0.0203,5.9
0.179,0.0142,-0.012,0.0217,-0.0195,5.8
0.18,0.0082,-0.0173,0.0157,-0.0218,5.7
0.181,-0.0091,-0.0278,0.021,-0.003,5.7
0.182,-0.021,-0.0405,0.0352,0.0172,5.7
0.183,-0.0256,-0.057,0.0405,0.0292,5.7
0.184,-0.0256,-0.063,0.0502,0.039,5.7
0.185,-0.0143,-0.0495,0.0427,0.0382,5.7
0.186,0.0007,-0.0181,-0.003,0.0217,5.7
0.187,0.0165,0.0067,-0.054,0.0052,5.7
0.188,0.009,0.006,-0.042,0.006,5.7
0.189,-0.0135,0.0045,-0.0113,0.003,5.7
0.19,-0.012,0.0255,-0.0053,-0.0053,5.7
0.191,-0.0105,0.0592,0.0105,-0.0083,5.7
0.192,-0.0053,0.075,0.0045,-0.0135,5.7
0.193,0.0157,0.054,-0.003,-0.0135,5.7
0.194,0.0427,0.0435,-0.0218,-0.0098,5.7
0.195,0.0787,0.0502,-0.0278,-0.0015,5.7
0.196,0.108,0.0585,-0.0195,0.0052,5.7
0.197,0.1065,0.06,-0.0278,0.0052,5.7
0.198,0.078,0.0315,-0.0165,-0.0023,5.7
0.199,0.0465,0.0052,-0.0165,-0.0158,5.7
0.2,0.0142,-0.0128,-0.0105,-0.027,5.7
0.201,-0.0158,-0.0263,-0.0105,-0.0308,5.7
0.202,-0.0548,-0.0278,-0.0165,-0.0263,5.8
0.203,-0.0698,-0.024,-0.0165,-0.0203,5.8
0.204,-0.0495,-0.0083,-0.0203,-0.0135,5.8
0.205,-0.0323,0.0045,-0.024,-0.0068,5.8
0.206,-0.0068,0.0165,-0.0285,-0.003,5.8
0.207,0.0045,0.009,-0.0195,-0.003,5.8
0.208,0.0135,-0.0068,-0.0143,-0.0046,5.8
0.209,0.0285,-0.0053,-0.0128,-0.003,5.8
0.21,0.0292,-0.012,-0.0023,-0.0038,5.8
0.211,0.0255,-0.0128,0.006,-0.0135,5.8
0.212,0.0232,-0.0053,0.0052,-0.0285,5.9
0.213,0.021,0.0,0.0,-0.0428,5.9
0.214,0.0202,0.0067,-0.0105,-0.0413,5.9
0.215,0.0195,0.0037,-0.027,-0.0338,5.9
0.216,0.012,0.0067,-0.045,-0.024,5.9
0.217,0.0015,0.0112,-0.0533,0.0142,5.9
0.218,-0.0075,0.0052,-0.0473,0.051,5.9
0.219,-0.0128,-0.0053,-0.0368,0.0652,6.0
0.22,-0.0203,-0.0165,-0.0188,0.0757,6.0
0.221,-0.024,-0.0203,-0.0075,0.0712,6.0
0.222,-0.0256,-0.027,0.0052,0.0487,6.1
0.223,-0.027,-0.0346,0.0232,0.0232,6.1
0.224,-0.0248,-0.0256,0.0307,-0.0015,6.2
0.225,-0.0315,-0.012,0.0277,-0.021,6.3
0.226,-0.0263,-0.0038,0.0217,-0.021,6.3
0.227,-0.0105,-0.0008,0.0202,-0.0075,6.3
0.228,0.0007,-0.0083,0.024,0.0067,6.4
0.229,0.009,-0.0143,0.0195,0.018,6.4
0.23,0.009,-0.0091,0.0112,0.0067,6.5
0.231,0.0135,-0.0091,0.0075,-0.0046,6.6
0.232,0.0165,-0.0068,0.0045,-0.0015,6.6
0.233,0.0097,-0.0046,0.009,-0.012,6.7
0.234,0.0007,-0.0053,0.0195,-0.024,6.7
0.235,-0.0046,-0.0038,0.0247,-0.0263,6.7
0.236,-0.0075,-0.0008,0.0217,-0.03,6.8
0.237,-0.0075,0.0015,0.0082,-0.024,6.9
0.238,-0.015,-0.0046,-0.0105,-0.0158,6.9
0.239,-0.0323,-0.0046,-0.0338,-0.0105,7.0
0.24,-0.0473,0.0075,-0.0465,-0.0068,7.0
0.241,-0.0525,0.0217,-0.0413,-0.0083,7.1
0.242,-0.039,0.0292,-0.0353,-0.0075,7.1
0.243,-0.0181,0.0232,-0.0353,-0.0068,7.1
0.244,-0.0023,0.0225,-0.0285,-0.0046,7.1
0.245,0.0202,0.0225,-0.0181,-0.0083,7.2
0.246,0.0352,0.0165,-0.0046,-0.012,7.2
0.247,0.0457,0.0082,0.0045,-0.0098,7.2
0.248,0.06,0.006,0.0105,0.0015,7.2
0.249,0.0577,0.0112,0.0217,0.0232,7.2
0.25,0.0427,0.0075,0.039,0.0277,7.3
0.251,0.0232,-0.003,0.0495,0.0105,7.3
0.252,0.0112,-0.012,0.0352,-0.0098,7.3
0.253,0.0037,-0.0128,0.0375,-0.0203,7.4
0.254,-0.0173,-0.0105,0.0465,-0.0165,7.4
0.255,-0.0293,-0.0046,0.0367,-0.0046,7.4
0.256,-0.0195,0.0022,0.0352,0.0105,7.5
0.257,-0.0015,0.006,0.0315,0.0217,7.5
0.258,0.0135,0.0022,0.033,0.0165,7.5
0.259,0.0045,-0.0068,0.0277,0.0022,7.5
0.26,-0.0046,-0.0098,0.0217,-0.0053,7.6
0.261,0.0037,-0.012,0.027,-0.012,7.6
0.262,0.0105,-0.0105,0.0195,-0.0173,7.6
0.263,0.018,-0.0068,0.012,-0.0315,7.7
0.264,0.0172,-0.003,0.0105,-0.057,7.7
0.265,0.012,0.0022,0.0157,-0.0533,7.8
0.266,0.0007,0.0015,0.0247,-0.0315,7.8
0.267,-0.0105,0.0037,0.0367,-0.021,7.9
0.268,-0.0181,0.009,0.0307,-0.003,7.9
0.269,-0.0233,0.009,0.0127,0.0352,8.0
0.27,-0.0203,0.0045,0.0105,0.0682,8.1
0.271,-0.0225,-0.0023,0.0142,0.0697,8.1
0.272,-0.033,-0.0091,0.0157,0.0592,8.1
0.273,-0.042,-0.0158,0.0007,0.0577,8.2
0.274,-0.042,-0.0195,-0.0105,0.0457,8.2
0.275,-0.027,-0.0203,-0.0203,0.0307,8.3
0.276,-0.0091,-0.0195,-0.0165,0.0277,8.3
0.277,0.0015,-0.0135,-0.0128,0.0142,8.4
0.278,0.0067,-0.0128,-0.0203,-0.0023,8.4
0.279,0.0052,-0.0165,-0.0218,-0.012,8.5
0.28,0.0045,-0.0165,-0.0248,-0.0188,8.5
0.281,0.003,-0.0091,-0.0225,-0.0188,8.6
0.282,-0.0015,0.0007,-0.03,-0.0143,8.8
0.283,-0.0143,0.003,-0.0233,-0.0068,8.9
0.284,-0.0165,0.0007,-0.0195,-0.0046,9.0
0.285,-0.0075,0.0045,-0.021,-0.0075,9.2
0.286,-0.0098,0.006,-0.0128,-0.0053,9.3
0.287,-0.024,0.0075,-0.0128,-0.0091,9.4
0.288,-0.0293,0.0105,-0.0068,-0.0128,9.6
0.289,-0.0135,0.012,-0.0015,-0.0128,9.7
0.29,-0.0091,0.0067,0.0052,-0.0128,9.9
0.291,-0.0008,0.0045,0.0142,-0.0113,10.0
0.292,0.024,0.0067,0.012,-0.0046,10.1
0.293,0.039,0.0082,0.0052,0.0022,10.3
0.294,0.0532,0.0105,0.0105,0.0052,10.4
0.295,0.0555,0.0082,0.006,0.0037,10.5
0.296,0.0607,0.0007,0.0015,-0.0068,10.7
0.297,0.0705,-0.0038,0.0127,-0.0181,10.8
0.298,0.0622,-0.0015,0.0135,-0.0233,10.9
0.299,0.0232,-0.0015,0.0067,-0.0203,11.1
0.3,-0.0203,-0.006,-0.0068,-0.0158,11.2
0.301,-0.0346,-0.0046,-0.0143,-0.012,11.4
0.302,-0.0293,0.0015,-0.0195,-0.0053,11.5
0.303,-0.0143,0.0105,-0.0308,-0.0053,11.7
0.304,-0.0098,0.012,-0.0398,-0.0143,11.9
0.305,-0.0015,0.0105,-0.0405,-0.024,12.1
0.306,0.0067,0.0142,-0.0315,-0.0278,12.2
0.307,-0.0023,0.0105,-0.0308,-0.012,12.4
0.308,-0.012,0.003,-0.0285,0.0082,12.6
0.309,-0.0181,-0.0008,-0.0218,0.0232,12.7
0.31,-0.0143,0.0015,-0.0128,0.0435,12.9
0.311,-0.0113,-0.0008,-0.0173,0.0405,13.0
0.312,-0.0091,-0.0046,-0.0195,0.0225,13.2
0.313,-0.0038,-0.0008,-0.015,0.0067,13.4
0.314,0.0015,0.0007,-0.0233,-0.0046,13.5
0.315,0.009,0.006,-0.027,-0.0046,13.7
0.316,0.009,0.0082,-0.0256,-0.0068,13.9
0.317,0.0097,0.0052,-0.0233,-0.0083,14.1
0.318,0.012,0.0052,-0.0195,-0.006,14.3
0.319,0.0127,0.0045,-0.0128,-0.0053,14.4
0.32,0.0097,0.003,-0.0075,-0.0046,14.6
0.321,0.0015,-0.0015,-0.0098,-0.0068,14.6
0.322,0.0052,-0.0015,-0.0128,-0.0091,14.7
0.323,0.0135,0.0015,-0.0113,-0.0113,14.8
0.324,0.018,0.0037,-0.0015,-0.0091,14.8
0.325,0.0217,0.0052,0.0037,-0.0083,14.9
0.326,0.018,0.0045,0.0022,-0.0158,14.9
0.327,0.015,0.0015,0.0,-0.021,15.0
0.328,0.0202,0.0015,-0.0008,-0.0158,15.0
0.329,0.018,0.003,-0.0008,-0.0075,15.1
0.33,0.0015,0.0022,0.0,0.0007,15.2
0.331,-0.0113,-0.0008,0.0022,0.018,15.2
0.332,-0.0158,-0.003,0.0,0.0277,15.3
0.333,-0.0195,-0.0046,0.0015,0.0217,15.3
0.334,-0.027,-0.0075,0.0097,0.012,15.4
0.335,-0.027,-0.0068,0.0195,0.0015,15.5
0.336,-0.0188,-0.0083,0.024,-0.0053,15.5
0.337,-0.0008,-0.0091,0.0225,-0.0023,15.6
0.338,0.0165,-0.0053,0.024,0.0,15.6
0.339,0.018,-0.0038,0.0247,0.0015,15.7
0.34,0.0202,-0.0008,0.03,0.0037,15.7
0.341,0.027,-0.0008,0.0345,0.0037,15.7
0.342,0.024,-0.0038,0.033,0.0045,15.6
0.343,0.0142,-0.0083,0.0345,0.0052,15.4
0.344,-0.0008,-0.0143,0.0345,0.0037,15.3
0.345,-0.0128,-0.0165,0.033,0.0045,15.2
0.346,-0.0143,-0.0158,0.0277,0.0067,15.1
0.347,-0.0128,-0.0143,0.0292,0.006,14.9
0.348,-0.012,-0.0128,0.0232,0.0052,14.8
0.349,-0.0113,-0.0091,0.015,0.0067,14.7
0.35,-0.012,-0.0023,0.0225,0.0082,14.6
0.351,-0.0105,0.0105,0.0225,0.009,14.4
0.352,-0.0105,0.0307,0.0195,0.0097,14.4
0.353,-0.0083,0.0382,0.0232,0.009,14.2
0.354,-0.0075,0.0225,0.0187,0.0067,14.1
0.355,-0.006,0.006,0.0165,0.0052,13.9
0.356,-0.0053,0.0,0.0105,0.003,13.9
0.357,-0.0068,-0.0046,0.0015,0.0015,13.7
0.358,-0.0038,-0.0046,-0.0068,0.0007,13.6
0.359,-0.003,-0.0046,-0.0113,0.0007,13.5
0.36,-0.0023,-0.0053,-0.0091,0.0015,13.3
0.361,-0.003,-0.0053,-0.0053,0.0007,13.3
0.362,-0.0068,-0.0038,-0.0015,0.0022,13.2
0.363,-0.006,-0.003,-0.0015,0.003,13.1
0.364,-0.0068,-0.0046,-0.0015,0.0045,13.1
0.365,-0.003,-0.003,-0.0008,0.0052,13.0
0.366,0.0015,-0.0023,-0.0053,0.0015,13.0
0.367,0.0052,-0.0008,-0.0113,0.0,12.9
0.368,0.0082,-0.0015,-0.0068,-0.0008,12.8
0.369,0.0105,-0.0046,0.0075,0.0007,12.7
0.37,0.0075,-0.006,0.0127,0.0007,12.6
0.371,0.0052,-0.0053,0.0135,-0.0008,12.6
0.372,0.0,-0.006,0.0157,0.0,12.5
0.373,-0.0068,-0.006,0.009,0.0007,12.5
0.374,-0.0046,-0.0046,0.0067,-0.0015,12.4
0.375,-0.006,-0.0053,0.0127,-0.0023,12.3
0.376,-0.0091,-0.0046,0.024,0.0007,12.2
0.377,-0.012,-0.0053,0.0262,0.0,12.2
0.378,-0.015,-0.0046,0.024,-0.0008,12.1
0.379,-0.015,-0.003,0.0217,-0.0015,12.1
0.38,-0.0143,-0.0046,0.0172,-0.0015,11.9
0.381,-0.0128,-0.003,0.0135,-0.003,12.0
0.382,-0.0128,-0.0023,0.0037,-0.0046,12.0
0.383,-0.0128,-0.0015,0.0022,-0.0023,12.1
0.384,-0.0083,0.0,0.0037,-0.0015,12.1
0.385,-0.003,-0.0008,0.003,-0.0015,12.1
0.386,0.0007,-0.0008,0.0007,-0.0023,12.2
0.387,0.0015,-0.0008,-0.0046,-0.0023,12.2
0.388,-0.0008,-0.0023,-0.0015,-0.0038,12.3
0.389,-0.0015,-0.003,0.003,-0.0053,12.3
0.39,-0.0038,-0.0008,0.009,-0.003,12.4
0.391,0.0,0.0022,-0.0008,-0.0053,12.4
0.392,0.006,0.0045,-0.0068,-0.006,12.5
0.393,0.0075,0.0015,0.0052,-0.003,12.5
0.394,0.0082,-0.0008,0.0105,-0.0015,12.6
0.395,0.0082,-0.0015,0.0082,-0.003,12.6
0.396,0.0097,0.0022,-0.0015,-0.003,12.6
0.397,0.0097,0.0015,-0.0046,-0.0023,12.7
0.398,0.012,0.0015,0.0,-0.003,12.7
0.399,0.0142,0.003,0.0,-0.0046,12.8
0.4,0.0075,0.0007,-0.003,-0.003,12.8
0.401,-0.0015,-0.0015,-0.0135,-0.0023,12.8
0.402,-0.0008,0.0,-0.0323,-0.0046,12.9
0.403,0.009,0.0022,-0.0428,-0.0053,12.9
0.404,0.021,0.0037,-0.0458,-0.0038,12.9
0.405,0.018,0.0052,-0.048,-0.0046,12.9
0.406,0.0105,0.0067,-0.0503,-0.0068,12.9
0.407,-0.0015,0.009,-0.0533,-0.0068,12.9
0.408,-0.0105,0.0082,-0.0518,-0.0038,12.9
0.409,-0.003,0.0067,-0.0465,-0.0038,13.0
0.41,0.003,0.009,-0.0436,-0.0046,13.0
0.411,0.009,0.0082,-0.039,-0.003,13.0
0.412,0.0105,0.0067,-0.0405,-0.0046,13.0
0.413,0.0052,0.0037,-0.048,-0.0075,13.0
0.414,0.0105,0.0045,-0.0458,-0.0068,13.0
0.415,0.0157,0.0052,-0.0458,-0.0046,13.0
0.416,0.0165,0.0037,-0.0465,-0.0046,13.0
0.417,0.0262,0.0045,-0.0353,-0.0046,13.0
0.418,0.033,0.0045,-0.024,-0.0046,13.0
0.419,0.0277,0.003,-0.0195,-0.0038,13.1
0.42,0.0165,0.0045,-0.0181,-0.003,13.1
0.421,0.0142,0.0075,-0.0165,-0.0053,13.1
0.422,0.0247,0.0082,-0.0173,-0.0053,13.1
0.423,0.03,0.006,-0.0225,-0.0068,13.1
0.424,0.024,0.003,-0.0278,-0.0091,13.1
0.425,0.0127,0.0015,-0.0225,-0.0038,13.1
0.426,0.0037,0.0015,-0.0135,-0.003,13.1
0.427,0.0007,0.0007,-0.0098,-0.0038,13.1
0.428,-0.0015,0.0007,-0.012,-0.0008,13.1
0.429,-0.0038,-0.0015,-0.0165,0.0,13.1
0.43,-0.0008,-0.0008,-0.0203,0.0,13.1
0.431,-0.0015,0.0007,-0.0188,0.0007,13.1
0.432,-0.0046,0.0007,-0.0165,0.0007,13.1
0.433,-0.0053,0.003,-0.0128,0.0015,13.1
0.434,-0.0046,0.0037,-0.0113,0.0022,13.1
0.435,-0.0046,0.0045,-0.0105,0.0015,13.1
0.436,-0.0023,0.0045,-0.0068,0.0015,13.1
0.437,-0.0015,0.0015,-0.0068,0.0022,13.1
0.438,-0.0015,0.0007,-0.0023,0.003,13.1
0.439,-0.0038,-0.0008,0.003,0.0037,13.1
0.44,-0.006,-0.0008,0.0067,0.0045,13.1
0.441,-0.0068,-0.0023,0.012,0.0052,13.1
0.442,-0.0068,-0.0023,0.0127,0.0067,13.0
0.443,-0.0083,-0.0023,0.0142,0.0052,13.0
0.444,-0.0091,-0.0046,0.0157,0.0037,13.0
0.445,-0.0105,-0.0023,0.012,0.003,13.0
0.446,-0.0091,-0.0008,0.012,0.0045,12.9
0.447,-0.0083,-0.0015,0.0127,0.0045,12.9
0.448,-0.0075,-0.003,0.0112,0.0045,12.9
0.449,-0.0046,-0.0038,0.0105,0.0045,12.8
0.45,0.0007,-0.0015,0.0105,0.003,12.8
0.451,0.0007,-0.0008,0.0127,0.003,12.7
0.452,-0.003,0.0007,0.0112,0.0045,12.7
0.453,0.0045,0.0022,0.0082,0.0015,12.7
0.454,0.006,0.0007,0.012,0.0015,12.6
0.455,0.0052,0.0007,0.0142,0.0015,12.6
0.456,0.0007,0.0015,0.018,0.003,12.6
0.457,-0.0038,0.0007,0.0195,0.0037,12.5
0.458,-0.0038,-0.003,0.0157,0.0007,12.5
0.459,-0.006,-0.0075,0.012,0.0,12.5
0.46,-0.0075,-0.0083,0.0172,0.0015,12.4
0.461,-0.0105,-0.0075,0.024,0.0022,12.4
0.462,-0.0091,-0.0068,0.0277,0.0007,12.3
0.463,-0.0068,-0.0068,0.0232,-0.0015,12.3
0.464,-0.006,-0.006,0.018,0.0007,12.3
0.465,-0.0046,-0.0068,0.0202,0.0022,12.2
0.466,-0.0023,-0.0053,0.0217,0.0015,12.2
0.467,0.0,-0.003,0.024,0.0037,12.1
0.468,-0.0015,-0.003,0.024,0.0045,12.1
0.469,-0.0008,-0.0023,0.0202,0.0045,12.1
0.47,0.0022,-0.0008,0.0135,0.0022,12.1
0.471,0.0045,0.0,0.0097,0.0015,12.0
0.472,0.006,0.0015,0.0082,-0.0008,12.0
0.473,0.003,0.0007,0.0067,-0.0023,12.0
0.474,-0.0046,0.0,0.0037,-0.0015,11.9
0.475,-0.0091,0.0007,0.0015,-0.003,11.9
0.476,-0.0075,-0.0015,-0.0015,-0.003,11.8
0.477,-0.0083,-0.0008,-0.003,-0.0023,11.8
0.478,-0.0068,0.0,0.0045,-0.0008,11.8
0.479,-0.0105,-0.0015,0.0075,-0.0008,11.7
0.48,-0.0128,-0.0008,0.0075,-0.0015,11.7
0.481,-0.0113,-0.0008,0.0052,-0.0008,11.7
0.482,-0.0113,-0.0008,0.0045,0.0007,11.7
0.483,-0.0046,0.0,0.0112,0.0015,11.7
0.484,-0.0023,-0.0008,0.0172,0.0022,11.6
0.485,-0.0008,-0.0023,0.0127,0.0015,11.6
0.486,0.0037,-0.0023,0.009,-0.0015,11.6
0.487,0.0015,-0.0015,0.0075,-0.0023,11.6
0.488,0.0037,-0.0015,0.0067,-0.0015,11.5
0.489,0.006,0.0,0.012,0.0,11.5
0.49,0.0052,-0.0015,0.0135,0.0,11.5
0.491,0.0022,-0.0008,0.0135,0.0007,11.5
0.492,-0.0008,0.0007,0.0142,0.0015,11.5
0.493,0.0,0.0007,0.0112,0.0007,11.4
0.494,-0.0008,0.0,0.009,0.0,11.4
0.495,-0.0015,-0.0015,0.0045,-0.0008,11.4
0.496,-0.0046,-0.0046,0.0037,-0.0008,11.4
0.497,-0.0038,-0.006,0.0067,-0.0015,11.3
0.498,-0.003,-0.0053,0.0052,-0.0015,11.3
0.499,-0.006,-0.0038,0.009,0.0,11.3
0.5,-0.0075,-0.0046,0.018,0.0022,11.2
0.501,-0.0091,-0.0038,0.0255,0.0037,11.2
0.502,-0.0091,-0.006,0.0277,0.003,11.2
0.503,-0.012,-0.0053,0.0255,0.003,11.2
0.504,-0.0105,-0.0046,0.0202,0.003,11.2
0.505,-0.0083,-0.003,0.0165,0.003,11.2
0.506,-0.0091,-0.0038,0.0202,0.0052,11.2
0.507,-0.0098,-0.006,0.0262,0.003,11.2
0.508,-0.0105,-0.0083,0.024,0.003,11.2
0.509,-0.0053,-0.0068,0.0255,0.0037,11.2
0.51,-0.0023,-0.0068,0.0285,0.003,11.2
0.511,-0.0053,-0.0068,0.027,0.003,11.2
0.512,-0.0053,-0.0068,0.0277,0.003,11.2
0.513,-0.0075,-0.006,0.021,0.0022,11.2
0.514,-0.0053,-0.003,0.015,0.0007,11.2
0.515,-0.0015,-0.0038,0.018,0.0,11.2
0.516,-0.0015,-0.0053,0.0157,0.0015,11.2
0.517,0.0007,-0.0015,0.0097,-0.0008,11.2
0.518,0.0015,-0.0015,0.0067,-0.0015,11.2
0.519,0.0037,0.0015,0.0022,-0.0015,11.2
0.52,0.0037,0.003,-0.0008,-0.0015,11.1
0.521,0.0022,0.0022,-0.0046,-0.0008,11.1
0.522,0.0015,0.003,-0.006,0.0007,11.1
0.523,0.0,-0.0008,0.0007,0.0015,11.0
0.524,-0.0015,-0.0015,0.0082,0.003,11.0
0.525,-0.0038,-0.0046,0.015,0.0045,10.9
0.526,-0.006,-0.0075,0.0232,0.0067,10.9
0.527,-0.0083,-0.0038,0.027,0.0052,10.9
0.528,-0.0046,0.0,0.0255,0.0037,10.8
0.529,0.0007,0.0015,0.0172,0.0037,10.8
0.53,0.0052,0.0022,0.009,0.0007,10.7
0.531,0.012,0.0045,0.0015,0.0,10.7
0.532,0.0135,0.0045,-0.0053,-0.003,10.7
0.533,0.0112,0.0052,-0.0181,-0.0046,10.6
0.534,0.009,0.0037,-0.0278,-0.006,10.6
0.535,0.009,0.0007,-0.0323,-0.0083,10.5
0.536,0.0082,0.003,-0.0413,-0.0098,10.5
0.537,0.0142,0.0052,-0.0465,-0.0105,10.5
0.538,0.0165,0.0075,-0.0383,-0.0075,10.4
0.539,0.0105,0.0037,-0.0248,-0.0046,10.4
0.54,0.0067,0.0007,-0.0195,-0.0023,10.3
0.541,0.0022,0.0015,-0.0143,-0.0023,10.3
0.542,0.0007,0.0,-0.012,-0.0038,10.3
0.543,0.003,0.0015,-0.0158,-0.003,10.2
0.544,0.0045,0.0022,-0.0195,-0.003,10.2
0.545,0.0075,0.0037,-0.0203,-0.003,10.1
0.546,0.0067,0.0045,-0.012,-0.0015,10.1
0.547,0.003,0.0015,-0.0068,-0.0015,10.1
0.548,0.0015,0.0015,-0.0053,-0.0015,10.0
0.549,0.003,0.0037,-0.0083,-0.0023,10.0
0.55,0.003,0.0052,-0.0105,-0.003,9.9
0.551,0.003,0.003,-0.0068,-0.0015,9.9
0.552,0.0,0.0007,-0.0046,-0.0015,9.9
0.553,-0.0008,0.0015,-0.0091,-0.0008,9.8
0.554,0.003,0.0022,-0.0143,-0.0008,9.8
0.555,0.0052,0.0045,-0.0188,-0.003,9.7
0.556,0.006,0.0045,-0.0203,-0.003,9.7
0.557,0.0052,0.0045,-0.0165,-0.0023,9.7
0.558,0.0045,0.0052,-0.0143,-0.0015,9.6
0.559,0.0022,0.003,-0.012,-0.0015,9.6
0.56,0.0007,-0.0008,-0.0143,-0.0038,9.5
0.561,0.0045,0.0015,-0.0203,-0.003,9.5
0.562,0.0067,0.003,-0.0225,-0.0023,9.4
0.563,0.0082,0.0015,-0.0165,-0.003,9.4
0.564,0.0067,0.0007,-0.0105,-0.0023,9.4
0.565,0.003,0.0007,-0.0098,-0.0023,9.4
0.566,0.0037,0.0015,-0.0105,-0.003,9.3
0.567,0.0037,0.0007,-0.0091,-0.0038,9.3
0.568,0.003,0.0007,-0.0105,-0.0046,9.2
0.569,0.0015,0.0007,-0.0158,-0.0053,9.2
0.57,0.003,0.0007,-0.0233,-0.0068,9.1
0.571,0.0082,0.003,-0.0278,-0.0068,9.1
0.572,0.0112,0.0045,-0.027,-0.006,9.1
0.573,0.0105,0.0045,-0.024,-0.0053,9.0
0.574,0.0052,0.0022,-0.0195,-0.0046,9.0
0.575,0.0037,0.0022,-0.0195,-0.003,9.0
0.576,0.0052,0.003,-0.0173,-0.0046,8.9
0.577,0.0052,0.0015,-0.0105,-0.0038,8.9
0.578,0.0045,0.0007,-0.0083,-0.003,8.9
0.579,0.0045,-0.0023,-0.0053,-0.0023,8.8
0.58,0.0015,-0.0038,0.0015,-0.0008,8.7
0.581,-0.003,-0.0038,0.0022,0.0007,8.7
0.582,-0.0015,-0.003,-0.0038,-0.0015,8.7
0.583,-0.0015,-0.0015,-0.0113,-0.0015,8.7
0.584,0.0,0.0007,-0.0091,0.0,8.7
0.585,-0.0015,-0.0015,0.0022,-0.0008,8.6
0.586,-0.0053,-0.0038,0.0067,-0.0008,8.6
0.587,-0.0083,-0.003,0.009,0.0,8.6
0.588,-0.0105,0.0,0.0105,0.0007,8.5
0.589,-0.0091,0.0007,0.0105,0.0007,8.5
0.59,-0.0068,-0.0008,0.0082,-0.0008,8.5
0.591,-0.0015,0.0015,0.0052,-0.0008,8.5
0.592,0.0007,-0.0008,0.0037,-0.0015,8.5
0.593,0.0015,-0.0015,0.0015,-0.0023,8.4
0.594,0.0015,-0.0008,0.0007,-0.0008,8.4
0.595,0.0022,-0.0023,0.0007,0.0007,8.4
0.596,0.0007,-0.003,0.0052,0.0007,8.3
0.597,-0.0015,-0.003,0.0022,-0.0008,8.3
0.598,-0.0015,-0.0015,-0.003,-0.0015,8.3
0.599,-0.0023,-0.0015,-0.0053,-0.003,8.3
0.6,0.0,-0.0023,-0.0128,-0.0053,8.2
0.601,0.0045,-0.0015,-0.0128,-0.0046,8.2
0.602,0.006,-0.0015,-0.0113,-0.0015,8.2
0.603,0.0067,0.0007,-0.012,-0.0015,8.2
0.604,0.0037,0.0007,-0.0046,-0.0015,8.2
0.605,0.0007,0.0,0.003,0.0007,8.2
0.606,0.0007,0.0,0.0067,0.0007,8.2
0.607,-0.0008,0.0007,0.0037,0.0,8.2
0.608,0.0007,0.0015,0.0015,-0.0008,8.1
0.609,0.0015,0.0007,0.0015,-0.0008,8.1
0.61,0.0022,0.0007,0.0007,-0.0015,8.1
0.611,0.0007,-0.0008,0.0045,0.0,8.1
0.612,0.0015,-0.0015,0.0082,0.003,8.1
0.613,-0.0015,-0.003,0.012,0.0037,8.1
0.614,-0.003,-0.0008,0.0082,0.0015,8.1
0.615,-0.0015,0.0015,0.0045,0.0007,8.1
0.616,-0.003,-0.0015,0.0052,0.003,8.1
0.617,-0.003,-0.003,0.0052,0.0015,8.1
0.618,-0.0046,-0.003,0.0067,0.0015,8.1
0.619,-0.0053,-0.0008,0.0015,0.0015,8.1
0.62,-0.0015,0.0,0.003,0.0,8.0
0.621,0.0007,-0.0015,-0.0008,0.0,8.0
0.622,0.003,-0.0015,-0.0023,0.0007,8.0
0.623,0.0037,-0.0023,0.0022,0.0007,8.0
0.624,0.0015,-0.003,0.0045,0.0022,8.0
0.625,-0.0015,-0.003,0.0075,0.0015,7.9
0.626,-0.0046,0.0007,0.0052,0.0007,7.9
0.627,-0.003,-0.0008,0.0045,0.003,7.9
0.628,-0.003,-0.0008,0.0067,0.0037,7.9
0.629,-0.0023,0.0007,0.0082,0.0037,7.8
0.63,-0.0023,-0.0015,0.0097,0.003,7.8
0.631,-0.0038,-0.003,0.012,0.003,7.8
0.632,-0.0068,-0.0046,0.0157,0.006,7.7
0.633,-0.0091,-0.006,0.0225,0.0067,7.7
0.634,-0.0091,-0.0023,0.015,0.0037,7.7
0.635,-0.006,-0.0008,0.0045,0.0015,7.7
0.636,-0.0046,-0.0015,0.0045,0.0007,7.6
0.637,-0.0015,0.0007,0.006,-0.0008,7.6
0.638,-0.0008,0.0015,0.0067,-0.0008,7.6
0.639,-0.0015,-0.0015,0.0052,-0.0008,7.6
0.64,0.0007,-0.0008,0.0037,0.0007,7.5
0.641,0.0007,0.0,0.009,0.003,7.5
0.642,-0.0015,-0.0008,0.0097,0.0037,7.5
0.643,-0.003,0.0015,0.0015,0.003,7.5
0.644,0.0,0.003,0.0007,0.0022,7.4
0.645,-0.0008,0.0022,0.0007,0.003,7.4
0.646,-0.0008,0.0015,-0.003,0.003,7.3
0.647,0.0015,0.003,0.0037,0.0022,7.3
0.648,0.0022,0.003,0.0045,0.0015,7.3
0.649,0.0045,0.003,-0.0008,0.0007,7.2
0.65,0.0037,0.0015,-0.0046,0.0007,7.2
0.651,0.0045,0.0007,-0.0068,-0.0008,7.2
0.652,0.003,0.0007,0.0007,0.0007,7.1
0.653,0.0007,0.0007,0.0007,-0.0008,7.1
0.654,0.0007,0.0007,-0.0008,-0.0015,7.1
0.655,0.0015,-0.0015,0.0045,-0.0008,7.0
0.656,0.0,-0.0023,0.0067,0.0,7.0
0.657,-0.0015,-0.0008,0.0052,0.0015,6.9
0.658,-0.003,-0.0015,0.0052,-0.0008,6.9
0.659,-0.0038,-0.0023,0.0105,-0.0008,6.9
0.66,-0.0038,-0.0023,0.0082,-0.0015,6.8
0.661,-0.003,-0.0023,0.0022,-0.003,6.8
0.662,0.0007,-0.0015,-0.0008,-0.0015,6.7
0.663,0.0007,-0.003,-0.003,-0.0008,6.7
0.664,-0.0008,-0.0038,-0.0015,0.0,6.7
0.665,0.0015,-0.0015,0.0,0.0007,6.7
0.666,-0.0008,-0.003,0.003,0.0015,6.6
0.667,0.0007,-0.003,0.0045,0.0015,6.6
0.668,0.0022,-0.0015,0.003,0.0007,6.6
0.669,0.0022,-0.0015,0.0045,0.0015,6.5
0.67,0.0,-0.0015,0.0082,0.0022,6.5
0.671,-0.0038,-0.0015,0.0045,0.0007,6.4
0.672,-0.0008,-0.0008,0.0,-0.0023,6.4
0.673,0.0007,-0.0015,0.0045,-0.0015,6.4
0.674,0.003,0.0,0.003,-0.0008,6.3
0.675,0.0037,0.0015,-0.0046,-0.0008,6.3
0.676,0.0067,0.0015,-0.0015,0.0007,6.3
0.677,0.0067,0.0007,-0.003,-0.0015,6.2
0.678,0.006,0.0015,-0.0068,-0.0008,6.2
0.679,0.003,0.0,-0.0015,0.0007,6.2
0.68,-0.0008,-0.0015,0.0,0.0007,6.1
0.681,0.0,0.0007,0.0007,0.0015,6.1
0.682,0.0,0.0015,0.0007,0.0007,6.0
0.683,-0.0015,-0.0015,0.006,0.0,6.0
0.684,-0.0046,-0.0015,0.0082,0.0,6.0
0.685,-0.0038,-0.0023,0.0082,0.0015,5.9
0.686,-0.003,-0.0015,0.0135,0.0037,5.9
0.687,-0.0053,-0.003,0.0195,0.0045,5.8
0.688,-0.006,-0.0053,0.0165,0.0015,5.8
0.689,-0.003,-0.003,0.0045,0.0007,5.8
0.69,-0.0015,-0.0023,0.0082,0.0007,5.8
0.691,-0.0023,-0.0053,0.0097,-0.0015,5.7
0.692,-0.0023,-0.0046,0.0067,0.0007,5.7
0.693,-0.0023,-0.0015,0.0052,0.0007,5.7
0.694,-0.003,-0.0008,-0.0008,0.0,5.6
0.695,-0.0015,-0.0008,-0.0015,0.0,5.6
0.696,-0.0008,-0.0008,-0.0023,-0.0023,5.5
0.697,0.0007,0.0007,-0.0038,-0.0015,5.5
0.698,0.0007,-0.0008,-0.006,-0.0008,5.5
0.699,0.003,0.0015,-0.006,0.0007,5.4
0.7,0.0052,0.0022,-0.0015,0.0015,5.3
0.701,0.0052,0.0007,-0.0008,0.0015,5.3
0.702,0.003,0.0007,0.0022,0.0015,5.3
0.703,0.003,0.0,-0.0083,-0.0015,5.3
0.704,0.0082,0.003,-0.0233,-0.0046,5.3
0.705,0.009,0.0037,-0.0143,-0.0008,5.2
0.706,0.0,0.0007,0.0015,0.0022,5.2
0.707,-0.0046,0.0007,0.0045,0.0022,5.2
0.708,-0.0046,-0.0023,0.012,0.0045,5.1
0.709,-0.0083,-0.0053,0.0255,0.0067,5.1
0.71,-0.012,-0.0083,0.033,0.0082,5.1
0.711,-0.0128,-0.0068,0.033,0.0067,5.0
0.712,-0.0091,-0.0046,0.027,0.0045,5.0
0.713,-0.0083,-0.006,0.0202,0.0015,5.0
0.714,-0.0046,-0.006,0.0127,0.0007,4.9
0.715,-0.0015,-0.003,0.0082,-0.0015,4.9
0.716,0.0,-0.0015,0.0067,-0.0008,4.9
0.717,0.0007,-0.0015,0.0045,-0.0008,4.9
0.718,0.0015,0.0007,0.0015,-0.003,4.8
0.719,0.0015,0.0007,0.0015,-0.0015,4.8
0.72,0.0015,0.0007,-0.003,-0.0015,4.7
0.721,0.0015,0.0037,-0.0098,-0.0053,4.7
0.722,0.003,0.0045,-0.0098,-0.0053,4.7
0.723,0.0037,0.003,-0.0083,-0.0023,4.7
0.724,0.0007,0.0007,-0.0068,-0.0015,4.7
0.725,0.0022,0.0007,-0.0105,-0.0023,4.6
0.726,0.0082,0.003,-0.0165,-0.0046,4.6
0.727,0.0105,0.0045,-0.0233,-0.0038,4.6
0.728,0.012,0.0052,-0.0218,-0.0023,4.5
0.729,0.0082,0.0045,-0.0165,-0.003,4.5
0.73,0.0052,0.0015,-0.012,-0.0015,4.5
0.731,0.0045,0.0015,-0.0113,-0.0015,4.5
0.732,0.003,0.0015,-0.0105,-0.0046,4.5
0.733,0.0037,0.003,-0.0091,-0.0046,4.4
0.734,0.003,0.0037,-0.0105,-0.0046,4.4
0.735,0.0007,0.0037,-0.0091,-0.0046,4.4
0.736,0.0015,0.0045,-0.0038,-0.003,4.3
0.737,-0.0008,0.0007,0.0015,-0.003,4.3
0.738,-0.003,0.0007,0.0022,-0.0008,4.3
0.739,-0.003,0.0022,0.0007,0.0007,4.3
0.74,-0.0038,-0.0008,0.0015,0.0,4.2
0.741,-0.003,-0.0015,0.0052,-0.0008,4.2
0.742,-0.0046,-0.0015,0.006,-0.0008,4.2
0.743,-0.003,-0.0023,0.0067,0.003,4.2
0.744,-0.0015,-0.0053,0.0105,0.0045,4.2
0.745,-0.0015,-0.0083,0.0112,0.0082,4.2
0.746,-0.0046,-0.0075,0.012,0.0052,4.2
0.747,-0.003,-0.0075,0.009,-0.0015,4.2
0.748,-0.0008,-0.006,0.0045,-0.0046,4.2
0.749,0.003,-0.003,-0.0023,-0.0053,4.2
0.75,0.0075,0.0022,-0.0105,-0.0075,4.2
0.751,0.009,0.0007,-0.0113,-0.0083,4.2
0.752,0.0105,-0.0008,-0.0143,-0.0091,4.2
0.753,0.012,0.0015,-0.0203,-0.0128,4.2
0.754,0.0105,0.0022,-0.0181,-0.012,4.2
0.755,0.009,0.0037,-0.0203,-0.0083,4.2
0.756,0.0082,0.003,-0.0233,-0.0068,4.2
0.757,0.009,0.0052,-0.0285,-0.0068,4.2
0.758,0.012,0.0067,-0.03,-0.0038,4.2
0.759,0.0105,0.006,-0.0256,-0.0023,4.2
0.76,0.0097,0.006,-0.0293,-0.0023,4.1
0.761,0.0097,0.0075,-0.033,-0.0015,4.1
0.762,0.0082,0.0082,-0.0278,-0.0023,4.2
0.763,0.009,0.0067,-0.027,-0.0015,4.2
0.764,0.0082,0.0052,-0.024,-0.0008,4.2
0.765,0.0082,0.0045,-0.021,-0.0015,4.2
0.766,0.0067,0.0045,-0.0218,0.0,4.3
0.767,0.0052,0.0052,-0.0181,0.0015,4.3
0.768,0.0045,0.0045,-0.0181,-0.0008,4.3
0.769,0.003,0.006,-0.024,-0.003,4.3
0.77,0.0052,0.006,-0.0225,-0.0046,4.4
0.771,0.0052,0.0037,-0.0181,-0.0038,4.4
0.772,0.006,0.003,-0.0165,-0.0038,4.4
0.773,0.0052,0.0022,-0.0105,-0.0023,4.4
0.774,0.0022,0.0007,0.0015,0.0,4.4
0.775,0.0007,-0.0015,0.0007,-0.0008,4.5
0.776,-0.0015,-0.003,0.0015,-0.0008,4.5
0.777,-0.0015,-0.0023,0.0067,0.0,4.5
0.778,-0.003,-0.0023,0.0052,-0.0008,4.5
0.779,-0.0015,-0.003,0.0037,-0.0008,4.5
0.78,-0.0053,-0.003,0.0097,-0.0008,4.5
0.781,-0.0053,-0.0023,0.0127,0.0,4.6
0.782,-0.0053,-0.003,0.0112,0.0022,4.6
0.783,-0.0083,-0.0053,0.0202,0.0015,4.6
0.784,-0.0075,-0.006,0.0202,0.0022,4.7
0.785,-0.0068,-0.0068,0.0165,0.0022,4.7
0.786,-0.0068,-0.0068,0.0217,0.003,4.7
0.787,-0.0075,-0.0046,0.0172,0.0045,4.8
0.788,-0.0083,-0.0046,0.018,0.0052,4.8
0.789,-0.0083,-0.0046,0.0202,0.0045,4.9
0.79,-0.0083,-0.003,0.0172,0.0022,4.9
0.791,-0.0083,-0.0038,0.0172,0.003,4.9
0.792,-0.0083,-0.0038,0.015,0.003,4.9
0.793,-0.0068,-0.0046,0.012,0.0015,5.0
0.794,-0.006,-0.0046,0.012,0.0007,5.0
0.795,-0.0053,-0.0038,0.0127,0.0007,5.0
0.796,-0.006,-0.0038,0.0097,0.0007,5.1
0.797,-0.0046,-0.0015,0.009,-0.0008,5.1
0.798,-0.003,0.0,0.006,-0.0008,5.1
0.799,-0.0023,0.0007,0.0045,-0.0008,5.2
0.8,0.0,0.0007,0.006,-0.0023,5.2
0.801,-0.0015,0.0,0.0075,-0.0008,5.3
0.802,-0.0046,0.0007,0.009,-0.0008,5.3
0.803,-0.003,0.0,0.0097,0.0007,5.3
0.804,-0.0015,-0.0008,0.0082,0.0015,5.4
0.805,-0.0008,0.0,0.0067,0.0015,5.4
0.806,0.0015,0.0007,0.0015,0.0,5.5
0.807,0.003,0.0,0.0,-0.0008,5.5
0.808,0.0037,0.0007,-0.0015,0.0007,5.6
0.809,0.0022,0.0022,-0.0046,0.0015,5.6
0.81,0.0045,0.003,-0.0068,-0.0008,5.7
0.811,0.0052,0.0015,-0.0068,0.0007,5.7
0.812,0.0022,0.0007,-0.0023,-0.0008,5.8
0.813,0.003,0.0007,0.0007,0.0,5.8
0.814,0.0037,0.0007,0.0,0.0015,5.8
0.815,0.0015,0.0007,-0.0023,0.0015,5.9
0.816,0.0022,-0.0008,-0.0053,0.0015,5.9
0.817,0.003,-0.0008,-0.0046,0.0007,6.0
0.818,0.0045,-0.0008,-0.0015,0.0007,6.0
0.819,0.0067,0.0,-0.0038,0.0,6.1
0.82,0.0067,0.0015,-0.006,0.0,6.1
0.821,0.0052,0.0015,-0.0068,-0.0015,6.2
0.822,0.006,0.0007,-0.0105,-0.0023,6.3
0.823,0.0052,0.0007,-0.0083,-0.003,6.3
0.824,0.006,0.0007,-0.006,-0.0023,6.3
0.825,0.0052,0.003,-0.003,-0.0015,6.4
0.826,0.0022,0.003,0.0015,-0.003,6.5
0.827,0.0015,0.0015,0.0007,-0.0023,6.5
0.828,0.0015,0.0022,0.0007,-0.003,6.6
0.829,0.0022,0.003,-0.0008,-0.0008,6.7
0.83,0.0015,0.0015,-0.0053,0.0007,6.7
0.831,0.0007,0.0015,-0.0091,-0.0015,6.7
0.832,0.0022,0.0007,-0.0128,-0.0008,6.8
0.833,0.0015,-0.0015,-0.0113,-0.0008,6.9
0.834,0.0,-0.003,-0.0113,0.0007,6.9
0.835,0.0015,-0.0046,-0.0105,0.0022,7.0
0.836,0.0015,-0.0046,-0.0075,0.0015,7.1
0.837,0.0007,-0.003,-0.0091,0.0015,7.1
0.838,0.0015,-0.0023,-0.0083,0.0,7.2
0.839,0.0007,-0.0008,-0.0083,-0.0015,7.2
0.84,0.0007,0.0,-0.0105,-0.0008,7.3
0.841,0.0007,0.0007,-0.0105,-0.0015,7.4
0.842,0.0007,-0.0008,-0.0143,-0.0015,7.4
0.843,0.003,-0.0008,-0.0135,-0.0015,7.5
0.844,0.0015,-0.0008,-0.0083,-0.0008,7.6
0.845,0.0007,0.0015,-0.0053,-0.0008,7.6
0.846,0.003,0.0045,0.0007,0.0,7.7
0.847,0.0007,0.0007,0.0015,0.0022,7.8
0.848,-0.0015,-0.0008,0.003,0.0052,7.9
0.849,-0.0015,-0.0023,0.0037,0.0052,8.0
0.85,-0.003,-0.0023,0.0045,0.0045,8.1
0.851,-0.0008,-0.003,0.006,0.003,8.1
0.852,-0.0015,-0.0015,0.0052,0.0022,8.2
0.853,-0.0008,-0.0008,0.0045,0.0022,8.2
0.854,-0.0015,-0.0023,0.0037,0.003,8.3
0.855,0.0007,0.0,0.003,0.0015,8.4
0.856,-0.0008,0.0015,0.0045,0.0015,8.5
0.857,-0.0038,0.0007,0.0052,0.0015,8.5
0.858,-0.0008,0.0007,0.0075,0.0015,8.6
0.859,-0.0038,0.003,0.0052,-0.0008,8.7
0.86,-0.0068,0.0015,0.0052,-0.0015,8.8
0.861,-0.0046,-0.0008,0.0082,-0.0015,8.9
0.862,-0.006,-0.0008,0.0075,0.0007,9.0
0.863,-0.006,-0.0015,0.0052,0.0015,9.1
0.864,-0.0068,-0.0008,0.0037,0.0007,9.2
0.865,-0.0068,-0.0008,0.0045,0.0015,9.3
0.866,-0.0046,0.0,0.0052,0.003,9.4
0.867,-0.0038,-0.0015,0.0075,0.0045,9.5
0.868,-0.0046,-0.0046,0.0112,0.0052,9.6
0.869,-0.0046,-0.0038,0.012,0.0045,9.7
0.87,-0.003,-0.006,0.0082,0.003,9.8
0.871,0.0007,-0.0046,0.0045,0.0015,9.9
0.872,-0.0015,-0.0015,-0.0008,0.0,10.0
0.873,-0.0015,-0.0008,-0.0046,-0.0015,10.1
0.874,-0.003,0.0007,-0.0053,-0.0046,10.2
0.875,-0.0038,-0.0008,-0.0053,-0.003,10.3
0.876,-0.003,0.0007,-0.0015,-0.003,10.4
0.877,-0.0023,0.0007,0.0007,-0.003,10.5
0.878,-0.0008,-0.0008,0.0,-0.0008,10.6
0.879,-0.0008,0.0007,-0.0053,0.0,10.7
0.88,0.0007,0.0,-0.006,-0.0008,10.8
0.881,-0.0015,-0.003,0.0045,0.0,10.9
0.882,-0.0075,-0.0053,0.0127,0.0,11.1
0.883,-0.0075,-0.0068,0.0142,0.0015,11.2
0.884,-0.0053,-0.003,0.0105,0.003,11.4
0.885,-0.003,-0.0008,0.0075,0.0022,11.5
0.886,-0.0008,0.0015,0.009,0.003,11.7
0.887,-0.0008,0.003,0.0105,0.003,11.8
0.888,0.0007,0.0022,0.0067,0.0015,12.0
0.889,0.0015,0.0022,0.0022,0.0,12.1
0.89,0.0,-0.0015,0.0142,0.0007,12.2
0.891,-0.003,-0.0046,0.0195,-0.0008,12.4
0.892,-0.003,-0.0046,0.018,-0.0023,12.5
0.893,-0.0053,-0.0046,0.0217,-0.003,12.7
0.894,-0.003,-0.0015,0.009,-0.0038,12.8
0.895,0.0007,0.0007,0.0082,0.0007,13.0
0.896,-0.0023,-0.0038,0.021,0.0052,13.1
0.897,-0.0046,-0.0046,0.018,0.0045,13.2
0.898,-0.003,-0.003,0.0112,0.003,13.4
0.899,-0.0015,-0.0015,0.015,0.0045,13.5
0.9,-0.0023,-0.0008,0.0172,0.0052,13.7
0.901,-0.0015,-0.0038,0.018,0.0052,13.9
0.902,-0.003,-0.0068,0.027,0.0067,14.0
0.903,-0.0015,-0.0053,0.0165,0.0045,14.2
0.904,0.006,-0.0023,0.0045,0.003,14.4
0.905,0.0082,-0.0008,0.0045,0.0045,14.6
0.906,0.0052,-0.0008,0.006,0.0045,14.8
0.907,0.0045,0.0007,0.0075,0.003,14.9
0.908,0.0037,0.0015,0.0052,-0.0008,15.1
0.909,0.0037,0.003,0.003,-0.003,15.3
0.91,0.006,0.0082,-0.003,-0.006,15.5
0.911,0.003,0.0105,-0.003,-0.0038,15.7
0.912,0.0037,0.0142,-0.0165,-0.0023,15.9
0.913,0.009,0.0157,-0.027,0.0,16.1
0.914,0.0067,0.0097,-0.0233,0.0007,16.2
0.915,0.009,0.003,-0.03,-0.0083,16.4
0.916,0.0075,-0.0023,-0.027,-0.012,16.6
0.917,0.0067,-0.0143,-0.033,-0.0158,16.8
0.918,0.0112,-0.024,-0.039,-0.0165,17.0
0.919,0.0105,-0.021,-0.039,-0.0128,17.1
0.92,0.0127,-0.0143,-0.0458,-0.012,17.3
0.921,0.0142,-0.0068,-0.042,-0.0091,17.5
0.922,0.0157,-0.003,-0.0495,-0.0083,17.8
0.923,0.015,0.0015,-0.0473,-0.0091,18.0
0.924,0.0127,0.006,-0.0428,-0.0075,18.2
0.925,0.012,0.0075,-0.039,-0.0068,18.5
0.926,0.0075,0.0202,-0.0353,-0.0038,18.7
0.927,0.0052,0.042,-0.0323,0.0,18.9
0.928,0.003,0.0465,-0.0195,-0.0008,19.2
0.929,0.0022,0.0232,-0.0143,-0.0053,19.4
0.93,0.0022,0.0067,-0.0083,-0.0046,19.6
0.931,-0.0008,-0.0046,-0.0008,-0.0046,19.8
0.932,-0.0023,-0.0128,-0.0015,-0.0053,20.1
0.933,-0.0046,-0.0098,0.0015,-0.0015,20.3
0.934,-0.003,-0.012,0.0052,-0.0008,20.5
0.935,-0.0053,-0.0091,0.0075,0.0007,20.8
0.936,-0.0053,-0.0098,0.009,-0.0008,21.0
0.937,-0.0015,-0.0075,0.0045,-0.0008,21.2
0.938,0.0,-0.0038,0.0022,-0.0015,21.5
0.939,0.0015,-0.0046,0.0045,0.0007,21.7
0.94,0.0015,-0.0008,0.0052,0.0015,21.9
0.941,0.0007,0.0007,0.0082,0.0015,22.2
0.942,0.0007,-0.0008,0.0075,0.0007,22.5
0.943,-0.0008,0.0007,0.0045,-0.0008,22.7
0.944,-0.0008,0.003,0.0037,0.0007,23.0
0.945,-0.0008,0.0015,0.0045,0.0007,23.3
0.946,-0.0015,0.0007,0.0067,0.0,23.5
0.947,-0.0015,0.0007,0.0075,0.0022,23.8
0.948,-0.0008,-0.0008,0.0052,0.0015,24.1
0.949,0.0007,0.0015,0.0045,-0.0015,24.3
0.95,0.0007,0.0037,0.0037,-0.0008,24.6
0.951,0.0,0.0037,0.0037,0.0007,24.9
0.952,-0.0015,0.003,0.006,0.0007,25.2
0.953,-0.0015,0.0045,0.0037,0.003,25.4
0.954,-0.0015,0.0045,0.0067,0.003,25.7
0.955,-0.0008,0.003,0.0105,0.0015,26.0
0.956,-0.0008,0.0022,0.0165,0.003,26.2
0.957,-0.0015,-0.0008,0.0202,0.0015,26.5
0.958,-0.0015,-0.0015,0.027,0.003,26.8
0.959,-0.0091,-0.0046,0.039,0.006,27.0
0.96,-0.012,-0.006,0.048,0.0075,27.3
0.961,-0.015,-0.0068,0.0622,0.0105,27.5
0.962,-0.0203,-0.0091,0.072,0.009,27.8
0.963,-0.0218,-0.012,0.0735,0.009,28.0
0.964,-0.0233,-0.0135,0.075,0.0127,28.3
0.965,-0.0203,-0.0143,0.072,0.012,28.5
0.966,-0.0181,-0.012,0.0652,0.009,28.7
0.967,-0.015,-0.0091,0.0562,0.0067,28.9
0.968,-0.0091,-0.0068,0.0495,0.0067,29.2
0.969,-0.0068,-0.0053,0.045,0.006,29.4
0.97,-0.0068,-0.0053,0.0367,0.0022,29.7
0.971,-0.0091,-0.0053,0.027,-0.0008,29.9
0.972,-0.0053,-0.003,0.0157,0.0,30.1
0.973,-0.003,-0.0053,0.0217,0.0015,30.3
0.974,-0.0053,-0.0083,0.0345,0.003,30.6
0.975,-0.0068,-0.0098,0.0345,0.0045,30.8
0.976,-0.0068,-0.0083,0.0322,0.0045,31.0
0.977,-0.0046,-0.0068,0.0277,0.003,31.3
0.978,-0.0023,-0.0068,0.0217,0.0022,31.5
0.979,0.0,-0.006,0.0165,0.0007,31.7
0.98,0.0007,-0.0053,0.0105,-0.0008,31.9
0.981,0.0022,-0.003,-0.0015,-0.003,32.1
0.982,0.0037,-0.0015,-0.0046,-0.003,32.4
0.983,0.0037,-0.0015,-0.0091,-0.003,32.5
0.984,0.0067,0.0007,-0.0143,-0.003,32.7
0.985,0.009,0.0045,-0.015,-0.0015,32.9
0.986,0.0112,0.0082,-0.0278,-0.0053,33.1
0.987,0.0135,0.0105,-0.0375,-0.0068,33.3
0.988,0.0142,0.0097,-0.045,-0.0083,33.5
0.989,0.0127,0.0082,-0.0473,-0.0098,33.7
0.99,0.0135,0.009,-0.0503,-0.0091,33.9
0.991,0.0142,0.0097,-0.0473,-0.0091,34.1
0.992,0.0127,0.0082,-0.0436,-0.0098,34.3
0.993,0.0142,0.009,-0.0495,-0.0098,34.5
0.994,0.0165,0.0082,-0.0503,-0.0098,34.6
0.995,0.0157,0.0067,-0.0533,-0.0113,34.9
0.996,0.0165,0.0082,-0.0555,-0.0113,35.1
0.997,0.0142,0.0067,-0.048,-0.0105,35.2
0.998,0.0135,0.0067,-0.048,-0.0105,35.4
0.999,0.015,0.006,-0.0428,-0.0113,35.6
1.0,0.0105,0.0045,-0.0293,-0.0105,35.8
1.001,0.0082,-0.0008,-0.0233,-0.0091,36.0
1.002,0.0067,-0.0015,-0.0225,-0.0083,36.3
1.003,0.0082,-0.0008,-0.0256,-0.0091,36.5
1.004,0.0067,-0.0008,-0.0225,-0.0091,36.7
1.005,0.0007,-0.0015,-0.0143,-0.0075,36.9
1.006,0.0007,-0.0015,-0.0098,-0.006,37.2
1.007,0.0,-0.0008,-0.0128,-0.0083,37.4
1.008,0.0015,-0.0008,-0.0158,-0.0091,37.6
1.009,0.0007,-0.0008,-0.0143,-0.006,37.8
1.01,0.0015,0.0015,-0.0195,-0.0053,38.1
1.011,0.0052,0.003,-0.015,-0.0046,38.2
1.012,0.0037,0.0015,-0.0053,0.0007,38.5
1.013,0.0015,0.0037,0.0045,0.0022,38.7
1.014,-0.0015,0.0045,0.0105,0.0015,38.9
1.015,-0.0015,0.0045,0.0067,0.0007,39.1
1.016,-0.0023,0.003,0.0,-0.003,39.4
1.017,-0.0015,0.0045,-0.0053,-0.003,39.6
1.018,0.0,0.0052,-0.0113,-0.0023,39.8
1.019,0.003,0.0067,-0.0181,-0.0038,40.0
1.02,0.0052,0.0052,-0.0188,-0.0015,40.3
1.021,0.0045,0.0045,-0.0233,-0.003,40.5
1.022,0.0082,0.0045,-0.027,-0.0015,40.7
1.023,0.0067,0.003,-0.0225,0.0007,40.9
1.024,0.0045,0.003,-0.0203,0.0007,41.1
1.025,0.003,0.0007,-0.0181,0.0015,41.4
1.026,0.003,-0.0023,-0.0158,0.0015,41.6
1.027,0.0015,-0.003,-0.012,0.0,41.8
1.028,-0.0008,-0.006,-0.0083,-0.0008,42.0
1.029,-0.0008,-0.0068,-0.0053,0.0007,42.2
1.03,-0.003,-0.0091,0.0067,0.0022,42.4
1.031,-0.0068,-0.0113,0.0157,0.0045,42.7
1.032,-0.0113,-0.0105,0.0217,0.0067,42.9
1.033,-0.0158,-0.0105,0.0255,0.0052,43.1
1.034,-0.0143,-0.0105,0.0285,0.006,43.3
1.035,-0.0143,-0.0113,0.0345,0.006,43.5
1.036,-0.0128,-0.0113,0.0367,0.0067,43.7
1.037,-0.0128,-0.0091,0.0352,0.0082,44.0
1.038,-0.0105,-0.0083,0.033,0.0067,44.1
1.039,-0.0053,-0.0046,0.0255,0.0037,44.4
1.04,-0.0038,-0.003,0.0232,0.003,44.6
1.041,-0.0046,-0.0038,0.027,0.0052,44.8
1.042,-0.0068,-0.003,0.0217,0.003,45.0
1.043,-0.0046,-0.0023,0.0157,0.0007,45.2
1.044,-0.003,-0.0015,0.0142,0.0015,45.4
1.045,-0.0038,-0.0008,0.012,0.0015,45.6
1.046,-0.0015,0.0015,0.012,0.0022,45.8
1.047,-0.0046,0.0015,0.009,0.003,46.0
1.048,-0.0083,0.0022,0.0097,0.0022,46.2
1.049,-0.0068,0.0022,0.009,0.0015,46.4
1.05,-0.006,0.0022,0.0045,0.003,46.6
1.051,-0.003,0.003,0.0045,0.003,46.8
1.052,0.0015,0.006,-0.0023,0.0015,47.0
1.053,0.003,0.0075,-0.0113,0.0015,47.2
1.054,0.006,0.0075,-0.0143,-0.0008,47.4
1.055,0.0067,0.0045,-0.0165,-0.0015,47.6
1.056,0.0075,0.0037,-0.0188,-0.0046,47.8
1.057,0.009,0.0022,-0.0233,-0.0068,48.1
1.058,0.0105,0.0015,-0.0256,-0.0075,48.2
1.059,0.009,0.003,-0.0256,-0.0075,48.5
1.06,0.009,0.0052,-0.0278,-0.0053,48.6
1.061,0.0127,0.0075,-0.024,-0.0015,48.8
1.062,0.0105,0.009,-0.0173,-0.0008,49.0
1.063,0.009,0.0082,-0.0181,-0.0023,49.2
1.064,0.0097,0.0082,-0.0233,-0.0046,49.4
1.065,0.0112,0.0067,-0.0285,-0.0068,49.5
1.066,0.0112,0.0037,-0.0285,-0.0075,49.7
1.067,0.0112,0.003,-0.0256,-0.0068,49.9
1.068,0.0105,0.0037,-0.0218,-0.006,50.1
1.069,0.0067,0.0067,-0.0218,-0.0068,50.3
1.07,0.0082,0.009,-0.027,-0.0053,50.4
1.071,0.0097,0.0105,-0.03,-0.0023,50.6
1.072,0.0112,0.0105,-0.0256,-0.0015,50.8
1.073,0.0082,0.009,-0.0188,-0.0008,50.9
1.074,0.006,0.0052,-0.0165,0.0022,51.1
1.075,0.0045,0.0015,-0.012,0.0015,51.3
1.076,0.003,-0.003,-0.012,0.0007,51.5
1.077,0.0037,-0.006,-0.0128,0.0007,51.7
1.078,0.0022,-0.0083,-0.0053,0.0,51.8
1.079,0.0045,-0.006,-0.003,0.0007,52.0
1.08,0.0015,-0.0068,0.003,0.0037,52.2
1.081,0.0007,-0.0105,0.0105,0.0045,52.3
1.082,-0.0008,-0.0128,0.0142,0.0052,52.5
1.083,-0.0053,-0.0128,0.0195,0.0037,52.6
1.084,-0.0091,-0.015,0.0225,0.0045,52.7
1.085,-0.012,-0.015,0.0255,0.0052,52.8
1.086,-0.0128,-0.012,0.0307,0.0045,53.0
1.087,-0.0135,-0.0091,0.0337,0.0075,53.1
1.088,-0.015,-0.0083,0.0352,0.0082,53.2
1.089,-0.0143,-0.0075,0.033,0.0082,53.4
1.09,-0.0128,-0.0053,0.03,0.009,53.5
1.091,-0.0143,-0.003,0.0292,0.0082,53.6
1.092,-0.0113,-0.0008,0.0307,0.009,53.7
1.093,-0.0091,-0.0015,0.033,0.012,53.9
1.094,-0.0105,-0.003,0.0382,0.012,54.0
1.095,-0.0098,-0.0046,0.0427,0.0135,54.1
1.096,-0.012,-0.0046,0.0465,0.0165,54.3
1.097,-0.012,-0.0023,0.0502,0.018,54.4
1.098,-0.0105,-0.003,0.0472,0.018,54.5
1.099,-0.0091,-0.0053,0.0457,0.0165,54.6
1.1,-0.0091,-0.0053,0.0427,0.0157,54.8
1.101,-0.0083,-0.0023,0.0367,0.0135,54.9
1.102,-0.0083,-0.0046,0.0322,0.0097,55.0
1.103,-0.0083,-0.0053,0.0277,0.0067,55.1
1.104,-0.0075,-0.0046,0.0225,0.0052,55.2
1.105,-0.0053,-0.0023,0.018,0.0045,55.3
1.106,-0.0015,-0.0008,0.0127,0.0007,55.3
1.107,-0.0008,-0.0015,0.0067,0.0007,55.5
1.108,-0.0015,-0.0023,0.0045,0.0,55.6
1.109,-0.0015,0.0022,-0.006,-0.0015,55.7
1.11,0.0037,0.0067,-0.012,-0.0015,55.8
1.111,0.0075,0.0075,-0.0113,-0.003,55.9
1.112,0.006,0.0052,-0.0128,-0.0046,56.0
1.113,0.0067,0.003,-0.0135,-0.0046,56.1
1.114,0.006,0.0,-0.0173,-0.0038,56.2
1.115,0.003,-0.006,-0.0165,-0.0046,56.3
1.116,0.0015,-0.0053,-0.0181,-0.0046,56.4
1.117,0.0022,0.0007,-0.0195,-0.003,56.5
1.118,0.0045,0.0007,-0.0135,-0.0023,56.6
1.119,0.0052,0.0015,-0.0158,-0.003,56.7
1.12,0.003,0.0037,-0.0165,-0.0046,56.8
1.121,0.0045,0.006,-0.015,-0.0015,56.8
1.122,0.0045,0.0157,-0.0158,-0.0023,56.9
1.123,0.003,0.0232,-0.0158,-0.0046,56.9
1.124,0.003,0.0217,-0.0165,-0.0068,57.0
1.125,0.0045,0.0187,-0.015,-0.0091,57.0
1.126,0.0067,0.009,-0.0165,-0.015,57.1
1.127,0.0082,0.003,-0.0173,-0.0165,57.1
1.128,0.0067,0.0022,-0.0128,-0.0098,57.1
1.129,0.003,-0.0008,-0.0091,-0.0083,57.2
1.13,0.0015,-0.0015,-0.0053,-0.0091,57.2
1.131,0.0022,-0.0053,-0.0068,-0.0091,57.2
1.132,0.0022,-0.0091,-0.0083,-0.006,57.3
1.133,0.0007,-0.0075,-0.0083,-0.0046,57.3
1.134,0.0015,-0.0053,-0.0068,-0.0053,57.4
1.135,0.003,-0.0038,-0.0038,-0.003,57.4
1.136,0.0037,0.0007,-0.003,-0.003,57.5
1.137,0.0045,0.0045,-0.0008,0.0007,57.5
1.138,0.0082,0.0022,0.003,0.0037,57.6
1.139,0.0097,0.0015,0.0052,0.0067,57.6
1.14,0.0082,0.0022,0.0082,0.0045,57.6
1.141,0.0052,-0.0008,0.0067,0.0007,57.6
1.142,0.0007,-0.0038,0.0,-0.0015,57.6
1.143,-0.0046,-0.0053,-0.0046,-0.0053,57.6
1.144,-0.006,-0.0053,0.0015,-0.0053,57.6
1.145,-0.0075,-0.0046,0.003,-0.0015,57.6
1.146,-0.0083,-0.0038,0.0022,0.0007,57.6
1.147,-0.0083,-0.0046,0.0052,-0.0008,57.6
1.148,-0.0083,-0.0053,0.009,-0.0008,57.6
1.149,-0.0075,-0.0083,0.0105,-0.0015,57.6
1.15,-0.0075,-0.0091,0.0127,-0.0008,57.6
1.151,-0.0091,-0.0068,0.0195,0.0015,57.6
1.152,-0.0105,-0.0053,0.018,0.0007,57.5
1.153,-0.0083,-0.003,0.0172,0.0022,57.5
1.154,-0.0083,-0.0038,0.0187,0.0037,57.5
1.155,-0.0075,-0.0046,0.0142,0.003,57.5
1.156,-0.0053,-0.0053,0.0142,0.0022,57.5
1.157,-0.003,-0.0068,0.012,0.0022,57.5
1.158,-0.0015,-0.0046,0.0082,0.0022,57.5
1.159,0.0,-0.0023,0.0082,0.003,57.4
1.16,0.0015,0.0015,0.0067,0.0052,57.4
1.161,0.0007,0.0015,0.0082,0.0082,57.3
1.162,0.003,0.0007,0.009,0.0067,57.3
1.163,0.006,0.0,0.003,0.0037,57.2
1.164,0.0082,0.0022,-0.0008,0.0007,57.1
1.165,0.0097,0.0052,-0.003,-0.0038,57.1
1.166,0.0097,0.0037,-0.0068,-0.0053,57.0
1.167,0.0082,0.0045,-0.012,-0.0008,56.9
1.168,0.0045,0.0015,-0.0083,0.0045,56.8
1.169,0.003,0.0015,-0.0068,0.0015,56.7
1.17,0.0045,0.003,-0.0091,-0.0068,56.7
1.171,0.003,0.0007,-0.0046,-0.0143,56.6
1.172,0.0045,-0.0008,-0.0015,-0.015,56.5
1.173,0.0045,-0.0008,0.0,-0.0075,56.5
1.174,0.0022,0.0007,-0.0015,-0.0046,56.4
1.175,0.0015,0.0007,-0.0046,-0.003,56.3
1.176,-0.0023,-0.0008,-0.0046,0.0015,56.2
1.177,-0.0008,-0.0015,-0.0053,0.0082,56.2
1.178,-0.0008,-0.0046,-0.0023,0.0127,56.1
1.179,-0.0038,-0.003,-0.0068,0.0075,56.0
1.18,-0.0008,-0.0015,-0.0091,0.0015,55.9
1.181,0.0,-0.0008,-0.012,-0.0015,55.8
1.182,0.0037,0.0015,-0.0248,-0.0083,55.7
1.183,0.0075,0.0007,-0.0323,-0.0105,55.5
1.184,0.0105,0.0037,-0.0308,-0.0105,55.4
1.185,0.0112,0.0037,-0.0278,-0.0083,55.3
1.186,0.0097,0.0015,-0.0256,-0.0023,55.1
1.187,0.0082,0.0007,-0.0173,0.0015,55.0
1.188,0.0045,0.0,-0.0068,0.0015,54.9
1.189,0.0052,-0.0008,0.0037,-0.0008,54.7
1.19,0.0052,0.0007,0.0142,-0.003,54.6
1.191,0.0067,0.0045,0.0202,0.0045,54.4
1.192,0.0045,0.0052,0.0187,0.0067,54.3
1.193,-0.0008,0.003,0.0157,0.0007,54.2
1.194,-0.0023,0.0007,0.0112,0.0015,54.0
1.195,-0.0053,0.0007,0.0082,0.0015,53.9
1.196,-0.0053,-0.0008,0.009,0.0007,53.8
1.197,-0.0068,0.0007,0.0067,0.0052,53.6
1.198,-0.0053,0.0,0.0045,0.009,53.5
1.199,-0.0046,-0.003,0.0045,0.0075,53.4
1.2,-0.0083,-0.0038,0.009,0.0052,53.2
1.201,-0.0091,-0.0053,0.015,0.0007,53.1
1.202,-0.012,-0.006,0.018,-0.0023,52.8
1.203,-0.0128,-0.0046,0.0165,0.0007,52.6
1.204,-0.0105,-0.0038,0.0142,0.003,52.5
1.205,-0.0068,-0.0038,0.0067,0.0037,52.2
1.206,-0.0015,-0.0023,-0.0053,0.003,52.1
1.207,0.0045,-0.0008,-0.0091,0.003,51.9
1.208,0.0045,0.0007,-0.0023,0.003,51.7
1.209,0.0015,-0.0008,0.0007,0.0007,51.5
1.21,0.0007,-0.0015,0.0007,0.0015,51.3
1.211,0.0015,0.0,0.0,-0.0068,51.1
1.212,0.0015,0.0,-0.0053,-0.0195,50.9
1.213,0.003,0.0015,-0.012,-0.0218,50.7
1.214,0.0067,0.0052,-0.0143,-0.0158,50.5
1.215,0.009,0.0075,-0.0203,-0.0068,50.3
1.216,0.0105,0.0082,-0.027,0.0007,50.1
1.217,0.0127,0.006,-0.0256,0.0127,49.9
1.218,0.0127,0.0015,-0.0218,0.0157,49.8
1.219,0.012,-0.0015,-0.0233,0.009,49.5
1.22,0.0112,0.0022,-0.0263,0.0015,49.3
1.221,0.0127,0.0045,-0.0323,-0.0068,49.1
1.222,0.0165,0.0052,-0.0361,-0.0083,48.9
1.223,0.018,0.0082,-0.0353,-0.0083,48.6
1.224,0.0157,0.0052,-0.033,-0.0091,48.4
1.225,0.0127,0.0052,-0.03,-0.0091,48.1
1.226,0.0097,0.003,-0.0218,-0.0091,47.8
1.227,0.0067,0.0015,-0.0181,-0.0068,47.6
1.228,0.0045,0.0015,-0.0158,-0.0046,47.3
1.229,0.0015,0.0007,-0.0105,-0.0046,47.1
1.23,0.0,0.0022,-0.0105,-0.0083,46.8
1.231,-0.0023,0.0052,-0.0053,-0.0165,46.6
1.232,-0.0046,0.0045,-0.0008,-0.021,46.3
1.233,-0.0046,0.0045,0.0007,-0.015,46.1
1.234,-0.0023,0.0037,0.0037,-0.0143,45.9
1.235,0.0,0.0,0.0022,-0.012,45.6
1.236,0.0,-0.0008,0.0015,0.0067,45.3
1.237,-0.0008,-0.0046,0.0052,0.0157,45.1
1.238,-0.0008,-0.0053,0.009,-0.0023,44.8
1.239,-0.0023,-0.0046,0.012,-0.0128,44.6
1.24,-0.003,-0.006,0.0157,0.003,44.3
1.241,-0.003,-0.0015,0.0157,0.012,44.0
1.242,-0.003,0.003,0.0112,0.018,43.7
1.243,-0.0008,0.0022,0.0082,0.024,43.4
1.244,0.0007,-0.0038,0.0082,0.0142,43.1
1.245,-0.003,-0.0068,0.0105,0.0097,42.8
1.246,-0.0068,-0.006,0.0127,0.0045,42.5
1.247,-0.0075,-0.0046,0.0127,-0.0083,42.3
1.248,-0.0053,0.0,0.009,-0.0068,41.9
1.249,-0.0068,-0.0008,0.009,0.0052,41.7
1.25,-0.0075,-0.0023,0.009,0.0142,41.4
1.251,-0.0046,-0.0015,0.006,0.009,41.0
1.252,-0.0053,0.0,0.0082,0.0022,40.8
1.253,-0.006,0.0022,0.0015,0.0007,40.5
1.254,-0.0046,0.0037,-0.0046,-0.0038,40.2
1.255,-0.0046,0.0037,-0.0046,-0.0098,39.9
1.256,-0.0015,0.003,-0.0083,-0.0128,39.6
1.257,-0.0008,0.0015,-0.003,-0.0098,39.3
1.258,0.0,-0.0008,-0.0008,-0.012,39.0
1.259,0.0,-0.0008,-0.0015,-0.012,38.7
1.26,0.0007,-0.0046,0.0007,0.0037,38.3
1.261,0.0,-0.0083,0.006,0.0255,38.1
1.262,-0.0015,-0.0068,0.0052,0.0217,37.8
1.263,-0.003,-0.003,0.003,0.009,37.4
1.264,-0.0023,0.0022,0.0045,-0.0008,37.1
1.265,0.0015,0.0052,0.0067,-0.027,36.8
1.266,0.003,0.0067,0.009,-0.033,36.5
1.267,0.0037,0.0015,0.0082,-0.0135,36.2
1.268,0.0022,-0.0053,0.009,-0.0083,35.9
1.269,0.003,-0.006,0.0067,-0.0008,35.5
1.27,0.0015,-0.0053,0.0045,0.006,35.2
1.271,-0.0008,-0.0053,-0.0038,-0.006,34.9
1.272,-0.0015,-0.0068,-0.012,-0.0233,34.6
1.273,-0.0046,-0.0015,-0.0143,-0.03,34.3
1.274,-0.0053,0.0015,-0.0113,-0.0158,34.0
1.275,-0.003,0.003,-0.0068,0.0157,33.7
1.276,-0.003,0.003,-0.0053,0.054,33.3
1.277,-0.003,-0.003,-0.0015,0.0675,33.0
1.278,-0.003,-0.0075,0.0037,0.0487,32.7
1.279,-0.0023,-0.012,0.0142,0.0262,32.4
1.28,-0.0008,-0.0143,0.0217,-0.0143,32.0
1.281,0.0015,-0.0113,0.0202,-0.057,31.8
1.282,0.0045,-0.006,0.021,-0.0608,31.4
1.283,0.0045,-0.0008,0.0195,-0.0353,31.1
1.284,0.0075,-0.0008,0.0112,-0.0135,30.7
1.285,0.012,0.003,0.0022,0.0127,30.4
1.286,0.0135,0.0052,-0.003,0.039,30.1
1.287,0.0105,0.0015,-0.0068,0.03,29.7
1.288,0.0052,0.0,-0.0165,0.0142,29.4
1.289,0.003,0.0015,-0.0263,0.0007,29.1
1.29,-0.0015,0.0007,-0.0263,-0.012,28.7
1.291,-0.0046,-0.0015,-0.024,-0.012,28.4
1.292,-0.0038,-0.0008,-0.0248,-0.0158,28.1
1.293,-0.0053,0.0015,-0.0218,-0.0256,27.7
1.294,-0.0015,0.0052,-0.0158,-0.0458,27.4
1.295,-0.0023,0.0082,-0.0113,-0.0578,27.0
1.296,-0.0008,0.0105,-0.0143,-0.0428,26.7
1.297,0.0015,0.009,-0.0188,-0.0203,26.4
1.298,0.0015,0.0082,-0.0158,0.0075,26.1
1.299,0.0007,0.009,-0.0023,0.042,25.7
1.3,0.0045,0.003,0.012,0.066,25.3
1.301,0.009,-0.0053,0.0127,0.0562,25.0
1.302,0.009,-0.0098,0.0037,0.0285,24.7
1.303,0.012,-0.0068,0.009,0.009,24.3
1.304,0.0075,-0.003,0.0195,-0.0046,23.9
1.305,0.0052,0.0,0.0172,-0.0083,23.6
1.306,0.0075,0.0015,0.0232,-0.0068,23.2
1.307,0.0015,0.0007,0.021,-0.0091,22.9
1.308,-0.006,0.0045,0.0135,-0.0218,22.5
1.309,-0.0158,0.006,0.0045,-0.0458,22.1
1.31,-0.0173,0.0082,-0.003,-0.0503,21.8
1.311,-0.0091,0.0082,-0.0038,-0.0256,21.4
1.312,0.003,0.0067,-0.0053,-0.006,21.1
1.313,0.0052,0.0067,0.0015,0.012,20.7
1.314,-0.0008,0.0015,0.003,0.027,20.3
1.315,-0.0023,-0.0023,0.0067,0.0187,20.0
1.316,-0.0046,-0.0053,0.0067,-0.0046,19.6
1.317,-0.0083,-0.0083,0.0015,-0.0256,19.3
1.318,-0.012,-0.0053,0.003,-0.0181,18.9
1.319,-0.0143,-0.0015,0.0007,0.0045,18.5
1.32,-0.0158,0.0,-0.0068,0.0292,18.1
1.321,-0.0105,0.0022,-0.0143,0.0495,17.9
1.322,-0.0023,0.0007,-0.0203,0.0495,17.6
1.323,0.0015,-0.0083,-0.0165,0.0442,17.3
1.324,0.003,-0.0128,0.0045,0.0277,17.0
1.325,0.0067,-0.0083,0.0217,0.006,16.7
1.326,0.0067,-0.0046,0.0217,-0.0075,16.4
1.327,0.0075,-0.0046,0.018,-0.0165,16.1
1.328,0.0045,-0.0046,0.0052,-0.0068,15.8
1.329,0.0045,-0.0068,-0.0091,0.003,15.5
1.33,0.0105,-0.0046,-0.0233,0.0075,15.2
1.331,0.018,0.0007,-0.0315,0.0127,14.9
1.332,0.024,0.003,-0.0263,0.0097,14.6
1.333,0.0195,0.003,-0.0225,0.0037,14.4
1.334,0.0172,0.0015,-0.0158,-0.0023,14.0
1.335,0.0127,0.0,-0.0068,-0.0053,13.8
1.336,0.0045,-0.0046,0.0007,-0.0053,13.5
1.337,0.0045,-0.0053,0.0075,-0.0075,13.2
1.338,0.003,-0.0008,-0.0038,-0.0188,12.9
1.339,0.0015,0.0082,-0.015,-0.024,12.6
1.34,-0.0053,0.012,-0.0173,-0.0165,12.2
1.341,-0.0143,0.0052,-0.0158,-0.0105,12.1
1.342,-0.021,0.0,-0.0105,-0.0008,11.9
1.343,-0.0256,-0.0015,-0.003,0.0157,11.7
1.344,-0.024,-0.003,0.0187,0.0315,11.6
1.345,-0.0195,-0.0046,0.0367,0.0307,11.4
1.346,-0.0135,-0.0053,0.0405,0.018,11.2
1.347,-0.006,-0.0015,0.039,0.0187,11.1
1.348,0.003,0.0015,0.0277,0.018,10.9
1.349,0.009,0.0045,0.0202,0.0195,10.7
1.35,0.0105,0.0022,0.0217,0.0262,10.5
1.351,0.003,-0.0038,0.0622,0.0277,10.4
1.352,-0.0075,-0.006,0.1042,0.0247,10.2
1.353,-0.0083,-0.0015,0.0922,0.0105,10.0
1.354,-0.0068,-0.0023,0.078,-0.0015,9.9
1.355,-0.0203,-0.0075,0.063,-0.0068,9.7
1.356,-0.027,-0.0015,0.0345,-0.0091,9.5
1.357,-0.0233,0.0007,0.0157,-0.0053,9.4
1.358,-0.0233,0.0022,-0.0015,-0.0053,9.2
1.359,-0.0158,0.0067,-0.0068,-0.0053,9.0
1.36,-0.0046,0.0075,-0.0098,-0.0068,8.8
1.361,0.0075,0.0045,-0.0105,-0.0038,8.7
1.362,0.0217,0.0015,-0.0098,-0.0023,8.7
1.363,0.0345,0.0015,-0.0203,-0.0128,8.6
1.364,0.0427,-0.0038,-0.0218,-0.0203,8.5
1.365,0.0405,-0.0075,-0.0248,-0.024,8.5
1.366,0.027,-0.006,-0.0285,-0.0158,8.4
1.367,0.0105,-0.0038,-0.027,0.0052,8.3
1.368,-0.0113,-0.0046,-0.0315,0.0195,8.2
1.369,-0.0203,-0.0053,-0.0458,0.0165,8.2
1.37,-0.0233,-0.0068,-0.048,0.009,8.1
1.371,-0.027,-0.012,-0.0293,0.0022,8.0
1.372,-0.0195,-0.0105,-0.0091,-0.0023,8.0
1.373,-0.0128,-0.012,0.009,-0.003,7.9
1.374,-0.0023,-0.0075,0.0067,-0.0023,7.8
1.375,0.009,0.0007,0.0007,-0.003,7.7
1.376,0.0187,0.0045,-0.003,-0.0046,7.6
1.377,0.0225,0.009,-0.0143,-0.0113,7.6
1.378,0.0157,0.0082,-0.0173,-0.0158,7.5
1.379,0.0157,0.0082,-0.0181,-0.0173,7.5
1.38,0.018,0.0097,-0.0165,-0.0143,7.3
1.381,0.0135,0.0097,-0.0135,-0.0015,7.3
1.382,0.018,0.012,-0.0188,0.0082,7.3
1.383,0.0277,0.0112,-0.0233,0.009,7.3
1.384,0.0232,0.0112,-0.0293,0.0037,7.2
1.385,0.0142,0.0082,-0.0375,-0.0068,7.2
1.386,0.0045,0.0067,-0.0338,-0.0143,7.2
1.387,0.0007,0.0052,-0.0113,-0.0173,7.2
1.388,-0.0015,-0.0046,0.0315,-0.0158,7.1
1.389,-0.0225,-0.015,0.0712,-0.0053,7.1
1.39,-0.033,-0.0203,0.0667,0.0045,7.0
1.391,-0.0233,-0.0143,0.036,0.0082,7.0
1.392,-0.0143,-0.0098,0.0217,0.003,7.0
1.393,-0.0105,-0.0083,0.0037,-0.003,6.9
1.394,-0.0046,-0.0091,-0.0098,-0.0053,6.9
1.395,-0.0008,-0.0158,-0.0158,-0.0068,6.9
1.396,-0.0008,-0.0181,-0.0218,-0.0046,6.8
1.397,-0.0008,-0.0285,-0.0203,-0.0023,6.8
1.398,-0.0008,-0.0338,-0.0173,-0.0053,6.7
1.399,0.0045,-0.0323,-0.0165,-0.0091,6.7
1.4,0.003,-0.0308,-0.015,-0.0105,6.7
1.401,0.0007,-0.0091,-0.0128,-0.0105,6.7
1.402,0.0022,0.012,-0.0203,-0.0105,6.7
1.403,-0.0083,0.0217,-0.0308,-0.0068,6.7
1.404,-0.0135,0.0322,-0.024,0.0052,6.7
1.405,-0.0068,0.0382,-0.0105,0.015,6.7
1.406,-0.0008,0.039,-0.0053,0.0172,6.7
1.407,0.006,0.0292,0.0007,0.0097,6.7
1.408,0.0165,0.0165,0.0067,0.0045,6.7
1.409,0.0232,0.021,0.0067,-0.0015,6.7
1.41,0.0097,0.0202,0.012,-0.003,6.7
1.411,-0.0046,0.0195,0.018,-0.0046,6.7
1.412,-0.0098,0.0285,0.0157,-0.012,6.7
1.413,-0.0105,0.0397,0.003,-0.012,6.7
1.414,-0.0053,0.054,-0.0158,-0.0091,6.7
1.415,-0.0015,0.0495,-0.0293,-0.006,6.6
1.416,0.0022,0.024,-0.0338,-0.0023,6.6
1.417,0.0,0.0,-0.0278,-0.0008,6.6
1.418,0.0067,-0.0105,-0.0278,-0.0015,6.6
1.419,0.024,-0.0113,-0.0368,-0.0015,6.6
1.42,0.0322,-0.0113,-0.0353,0.0045,6.6
1.421,0.0382,-0.0128,-0.0233,0.0075,6.6
1.422,0.0405,-0.0195,-0.0105,0.0105,6.7
1.423,0.0315,-0.021,0.0045,0.0105,6.7
1.424,0.0225,-0.0203,0.009,0.0075,6.8
1.425,0.0112,-0.0203,0.003,0.0052,6.8
1.426,-0.0015,-0.0225,-0.0023,0.0037,6.9
1.427,-0.0068,-0.0256,0.0015,0.0052,6.9
1.428,-0.0135,-0.0248,0.0105,0.0007,7.0
1.429,-0.0218,-0.0203,0.012,-0.0091,7.0
1.43,-0.0346,-0.0105,0.0172,-0.0128,7.1
1.431,-0.0405,-0.0046,0.024,-0.0075,7.2
1.432,-0.0368,-0.0068,0.0232,0.0075,7.2
1.433,-0.0383,-0.0128,0.0307,0.0202,7.2
1.434,-0.0383,-0.0181,0.0382,0.021,7.3
1.435,-0.045,-0.0165,0.0345,0.0157,7.3
1.436,-0.0495,-0.0098,0.0277,0.009,7.4
1.437,-0.057,-0.0068,0.0465,0.0067,7.5
1.438,-0.06,-0.012,0.0615,0.0052,7.5
1.439,-0.0465,-0.0113,0.0622,0.003,7.6
1.44,-0.024,-0.0083,0.0675,-0.0015,7.6
1.441,0.0045,-0.0053,0.0592,-0.0015,7.7
1.442,0.0315,-0.006,0.0555,0.0015,7.8
1.443,0.0615,-0.0053,0.0592,0.0052,7.9
1.444,0.0765,-0.0015,0.0622,0.012,8.0
1.445,0.072,0.0,0.0652,0.0097,8.1
1.446,0.0517,-0.0008,0.063,0.0075,8.1
1.447,0.039,-0.0015,0.048,0.0015,8.2
1.448,0.0307,0.0015,0.0315,-0.0053,8.3
1.449,0.0202,-0.0008,0.0157,-0.0083,8.4
1.45,0.018,-0.0038,-0.0008,-0.015,8.5
1.451,0.0142,-0.0023,-0.0046,-0.0158,8.5
1.452,-0.0053,0.0,-0.0135,-0.0143,8.6
1.453,-0.0308,0.0052,-0.0203,-0.0128,8.7
1.454,-0.048,0.0067,-0.0278,-0.012,8.8
1.455,-0.0623,0.0067,-0.039,-0.0091,8.9
1.456,-0.0555,0.006,-0.0428,-0.0083,9.0
1.457,-0.0383,0.0022,-0.0405,-0.0098,9.1
1.458,-0.015,0.003,-0.0383,-0.0068,9.2
1.459,0.0052,0.0082,-0.039,-0.0046,9.3
1.46,0.0165,0.0135,-0.0465,-0.0015,9.4
1.461,0.0345,0.018,-0.0548,0.0,9.4
1.462,0.0517,0.0217,-0.0653,-0.0038,9.4
1.463,0.0615,0.0142,-0.0713,-0.0083,9.3
1.464,0.0615,0.003,-0.057,-0.0135,9.3
1.465,0.0532,-0.0046,-0.0405,-0.0173,9.2
1.466,0.0352,-0.0008,-0.0293,-0.0143,9.2
1.467,0.009,0.0045,-0.0165,-0.0091,9.2
1.468,-0.0053,0.0075,-0.0128,-0.0113,9.1
1.469,0.0105,0.009,-0.0173,-0.012,9.1
1.47,0.0142,0.0067,-0.021,-0.012,9.0
1.471,-0.0008,0.0052,-0.015,-0.0113,9.0
1.472,-0.0135,0.003,-0.012,-0.0105,9.0
1.473,-0.0285,-0.0015,-0.0165,-0.0105,9.0
1.474,-0.0203,-0.0008,-0.015,-0.0075,8.9
1.475,-0.0188,0.003,-0.0128,-0.0053,8.9
1.476,-0.0233,0.0067,-0.0195,-0.0068,8.9
1.477,-0.0293,0.0045,-0.0165,-0.0083,8.8
1.478,-0.0315,0.0015,-0.0143,-0.0083,8.8
1.479,-0.0091,0.0015,-0.0173,-0.0091,8.8
1.48,0.0015,-0.0015,-0.0143,-0.0083,8.7
1.481,-0.0023,-0.0046,-0.003,-0.0015,8.8
1.482,-0.0098,-0.0075,0.0052,0.0045,8.9
1.483,-0.0165,-0.006,-0.0023,0.0082,9.0
1.484,0.0045,0.0007,-0.0046,0.0105,9.1
1.485,0.0457,0.0082,-0.0195,0.0105,9.2
1.486,0.0817,0.0112,-0.033,0.0105,9.3
1.487,0.0832,0.0045,-0.0128,0.0067,9.4
1.488,0.0555,-0.0083,0.0157,0.0045,9.4
1.489,0.0165,-0.0203,0.0352,0.0022,9.5
1.49,-0.0181,-0.0181,0.045,0.0015,9.7
1.491,-0.0383,-0.0105,0.0502,0.0082,9.8
1.492,-0.0458,-0.0091,0.0442,0.0105,9.9
1.493,-0.0308,-0.0053,0.0412,0.0142,9.9
1.494,-0.024,-0.0053,0.042,0.0172,10.0
1.495,-0.027,-0.003,0.042,0.018,10.1
1.496,-0.0293,-0.0008,0.0457,0.018,10.2
1.497,-0.0368,0.0007,0.045,0.018,10.3
1.498,-0.0368,0.0022,0.048,0.0172,10.4
1.499,-0.0458,-0.0008,0.039,0.0165,10.5
1.5,-0.0698,-0.0015,0.0187,0.015,10.6
1.501,-0.0773,-0.003,0.0075,0.012,10.7
1.502,-0.0615,-0.003,-0.0083,0.0082,10.9
1.503,-0.0346,0.0052,-0.0165,0.0067,11.0
1.504,-0.0015,0.0067,-0.0181,0.0045,11.2
1.505,0.0232,0.0007,-0.0158,0.0007,11.3
1.506,0.0502,-0.0046,-0.0143,-0.0015,11.4
1.507,0.0697,-0.003,-0.0218,-0.003,11.5
1.508,0.0735,0.0007,-0.0278,-0.0038,11.7
1.509,0.0885,0.0007,-0.027,-0.0046,11.8
1.51,0.0975,0.0052,-0.0256,-0.0038,11.9
1.511,0.1005,0.003,-0.027,-0.0046,12.1
1.512,0.075,-0.0038,-0.0181,-0.0083,12.2
1.513,0.0082,-0.0068,-0.0091,-0.0075,12.3
1.514,-0.0503,-0.0091,-0.0083,-0.0068,12.5
1.515,-0.063,-0.0083,-0.0128,-0.0083,12.6
1.516,-0.033,-0.0068,-0.0068,-0.0046,12.7
1.517,-0.0143,-0.0008,0.006,0.0007,12.8
1.518,-0.0165,0.0052,0.0157,0.0007,13.0
1.519,-0.0173,0.0052,0.0255,-0.0038,13.1
1.52,-0.0218,0.0075,0.0127,-0.006,13.2
1.521,-0.0256,0.009,-0.003,-0.0038,13.3
1.522,-0.0181,0.009,-0.0068,0.0,13.4
1.523,-0.0075,0.0067,-0.0105,-0.0015,13.5
1.524,0.0037,0.0037,-0.0165,-0.0046,13.5
1.525,0.0067,0.003,-0.0158,-0.003,13.6
1.526,-0.0008,0.0037,-0.0143,-0.0038,13.6
1.527,-0.0105,0.0037,-0.0256,-0.003,13.7
1.528,-0.0143,0.003,-0.0346,-0.0023,13.8
1.529,-0.0181,0.0015,-0.0278,-0.0015,13.9
1.53,-0.0218,0.0022,-0.0203,-0.0015,13.9
1.531,-0.0225,0.003,-0.0181,-0.0008,14.0
1.532,-0.0203,0.0037,-0.0195,0.0,14.1
1.533,-0.0165,0.0075,-0.0285,0.0,14.1
1.534,-0.0188,0.0067,-0.0233,-0.0008,14.2
1.535,-0.0105,0.0045,-0.0068,0.0,14.3
1.536,0.0045,-0.003,0.003,-0.0008,14.4
1.537,0.009,-0.0098,-0.0023,-0.0023,14.4
1.538,0.0142,-0.0075,-0.0008,-0.0015,14.5
1.539,0.0202,0.0,0.0075,-0.0023,14.5
1.54,0.0345,0.0007,0.0157,-0.0015,14.6
1.541,0.0502,-0.0015,0.0285,-0.0015,14.6
1.542,0.0645,-0.0046,0.0262,-0.003,14.6
1.543,0.063,-0.0038,0.0247,-0.0023,14.6
1.544,0.042,-0.0008,0.0232,0.0,14.5
1.545,0.0292,0.0007,0.012,0.003,14.5
1.546,0.0202,0.0045,0.0067,0.0052,14.5
1.547,0.018,0.0045,0.0015,0.0052,14.4
1.548,0.0202,0.003,-0.003,0.0045,14.4
1.549,0.0157,0.0015,-0.0083,0.003,14.4
1.55,0.0067,-0.0008,-0.0113,0.0015,14.4
1.551,-0.0053,0.003,-0.0165,0.0,14.3
1.552,-0.0083,0.0052,-0.0128,0.0015,14.3
1.553,-0.0135,-0.0008,0.0075,0.003,14.3
1.554,-0.0218,-0.0053,0.0157,0.0015,14.2
1.555,-0.024,-0.006,0.0195,0.0015,14.2
1.556,-0.0256,-0.003,0.0255,0.003,14.2
1.557,-0.03,-0.0008,0.0255,0.0037,14.1
1.558,-0.0443,-0.0023,0.03,0.0045,14.1
1.559,-0.0405,-0.003,0.0322,0.006,14.1
1.56,-0.0368,-0.0053,0.0345,0.0082,14.0
1.561,-0.0368,-0.0038,0.0345,0.006,13.9
1.562,-0.0248,-0.0015,0.03,0.0045,13.9
1.563,-0.0105,-0.0046,0.024,0.0045,13.8
1.564,0.0015,-0.0075,0.0135,0.003,13.7
1.565,0.0135,-0.0098,0.0082,0.0022,13.6
1.566,0.0202,-0.0075,0.0105,0.0067,13.5
1.567,0.0202,-0.0038,0.0127,0.0067,13.5
1.568,0.024,-0.003,0.0105,0.0052,13.4
1.569,0.03,-0.0015,0.0067,0.0007,13.3
1.57,0.0255,-0.0046,0.0045,-0.0015,13.2
1.571,0.0105,-0.0075,0.0052,0.0007,13.1
1.572,0.0082,-0.0023,0.0105,0.0037,13.0
1.573,0.015,0.003,0.0127,0.0045,13.0
1.574,0.0105,0.0037,0.0157,0.0015,12.9
1.575,-0.003,0.0007,0.018,-0.0015,12.8
1.576,-0.0143,-0.0053,0.0165,-0.0015,12.7
1.577,-0.0181,-0.0083,0.0217,0.0007,12.6
1.578,-0.0128,-0.0091,0.0202,0.0022,12.6
1.579,-0.0128,-0.0075,0.018,0.0015,12.5
1.58,-0.0098,-0.0053,0.0165,0.0007,12.3
1.581,-0.0075,-0.0015,0.0112,0.0015,12.3
1.582,-0.012,0.0015,0.0082,0.0037,12.3
1.583,-0.0158,-0.0008,0.0052,0.0052,12.3
1.584,-0.0218,0.0015,0.003,0.0045,12.3
1.585,-0.0256,-0.0008,-0.0008,0.003,12.3
1.586,-0.0285,-0.0008,-0.0046,0.0022,12.3
1.587,-0.0256,0.0015,-0.0046,0.0015,12.3
1.588,-0.0143,0.0015,-0.0083,0.0007,12.3
1.589,-0.0046,0.0037,-0.0091,-0.0015,12.3
1.59,0.0045,0.0045,-0.012,-0.0015,12.3
1.591,0.0105,0.003,-0.0165,-0.0023,12.3
1.592,0.0135,-0.003,-0.0098,-0.003,12.3
1.593,0.018,-0.0075,-0.0008,-0.0038,12.3
1.594,0.0165,-0.0091,0.0052,-0.003,12.3
1.595,0.0097,-0.0068,0.009,-0.0038,12.3
1.596,-0.0015,-0.0023,0.0067,-0.0053,12.3
1.597,-0.0128,-0.0008,0.0015,-0.0046,12.3
1.598,-0.0195,0.0007,0.0015,-0.0046,12.3
1.599,-0.0225,0.0007,0.0105,-0.0046,12.3
1.6,-0.0181,0.0007,0.0157,-0.0038,12.2
1.601,-0.0008,0.0022,0.006,-0.0075,12.3
1.602,0.0142,0.0015,-0.0105,-0.0091,12.3
1.603,0.0157,0.003,-0.0105,-0.0091,12.4
1.604,0.015,0.0045,0.0007,-0.0083,12.4
1.605,0.0007,0.0045,0.0052,-0.0091,12.5
1.606,-0.0105,-0.003,0.0075,-0.0105,12.5
1.607,-0.012,-0.0068,0.0142,-0.0083,12.5
1.608,-0.0068,-0.003,0.0232,-0.0053,12.6
1.609,0.0142,0.0,0.0187,-0.0068,12.6
1.61,0.0172,-0.0008,0.0135,-0.0053,12.6
1.611,0.0127,-0.0015,0.006,-0.0046,12.7
1.612,0.015,0.0015,-0.0113,-0.0046,12.7
1.613,0.0135,0.0052,-0.0233,-0.0053,12.8
1.614,0.0217,0.006,-0.033,-0.0068,12.8
1.615,0.0345,0.0045,-0.0398,-0.0053,12.9
1.616,0.0375,0.0007,-0.039,-0.0068,12.9
1.617,0.021,-0.0015,-0.0353,-0.0068,12.9
1.618,0.006,0.0,-0.0278,-0.0046,13.0
1.619,0.0007,0.0015,-0.024,-0.0015,13.0
1.62,-0.0046,0.0022,-0.0263,-0.0015,13.0
1.621,-0.003,0.003,-0.027,-0.003,13.1
1.622,-0.0046,0.003,-0.027,-0.0008,13.1
1.623,-0.0091,0.003,-0.0308,-0.0008,13.1
1.624,-0.0038,0.0037,-0.0353,-0.0015,13.2
1.625,0.0007,0.0037,-0.0338,-0.0015,13.2
1.626,0.0015,0.0022,-0.0315,-0.003,13.2
1.627,0.0015,0.0007,-0.027,-0.0015,13.3
1.628,0.0,0.003,-0.0158,0.0,13.3
1.629,-0.0008,0.003,-0.0091,0.0007,13.4
1.63,0.0015,0.0037,-0.0128,0.0015,13.4
1.631,0.0045,0.0045,-0.0173,-0.0008,13.4
1.632,0.0022,0.0022,-0.0158,0.0015,13.5
1.633,-0.0023,0.003,-0.0188,0.003,13.5
1.634,-0.0023,0.0037,-0.0248,0.0007,13.5
1.635,0.0007,0.0067,-0.0405,-0.0015,13.5
1.636,0.0045,0.009,-0.0548,-0.003,13.6
1.637,0.009,0.0105,-0.0615,-0.0053,13.6
1.638,0.009,0.0112,-0.063,-0.0075,13.7
1.639,0.012,0.0105,-0.0593,-0.0083,13.7
1.64,0.0157,0.009,-0.054,-0.0075,13.7
1.641,0.0135,0.0067,-0.048,-0.006,13.7
1.642,0.0135,0.006,-0.0458,-0.0083,13.7
1.643,0.0172,0.0045,-0.0405,-0.0091,13.7
1.644,0.018,0.003,-0.0368,-0.0068,13.7
1.645,0.0202,0.006,-0.0383,-0.0053,13.7
1.646,0.0217,0.0052,-0.033,-0.0046,13.7
1.647,0.0262,0.0082,-0.0278,-0.0015,13.7
1.648,0.0352,0.0105,-0.0218,-0.0015,13.7
1.649,0.042,0.009,-0.0143,-0.0015,13.7
1.65,0.0345,0.006,-0.0113,-0.0046,13.7
1.651,0.0165,0.0,-0.0105,-0.003,13.7
1.652,0.0052,-0.0015,-0.0068,-0.0015,13.7
1.653,-0.0091,-0.0023,0.0007,-0.0008,13.7
1.654,-0.0195,-0.003,0.0067,-0.0008,13.7
1.655,-0.0181,-0.0008,0.0045,-0.0023,13.7
1.656,-0.0188,-0.0008,0.0052,0.0,13.7
1.657,-0.012,0.0022,0.0037,0.0022,13.7
1.658,-0.0105,0.003,0.0015,0.0015,13.7
1.659,-0.0128,0.0015,0.009,0.0015,13.7
1.66,-0.0098,0.0,0.0217,0.0015,13.7
1.661,-0.0098,-0.0023,0.0322,0.003,13.7
1.662,-0.0083,-0.0023,0.0352,0.0037,13.6
1.663,-0.0105,-0.0046,0.0292,0.0045,13.5
1.664,-0.0105,-0.0068,0.0232,0.0022,13.5
1.665,-0.0038,-0.006,0.0195,0.0007,13.5
1.666,0.0045,-0.0015,0.018,0.0022,13.4
1.667,0.0067,-0.0023,0.0217,0.003,13.3
1.668,0.0045,-0.0068,0.018,0.003,13.3
1.669,0.0045,-0.006,0.0082,0.0015,13.2
1.67,0.0,-0.0038,0.0045,0.0007,13.1
1.671,-0.0068,-0.0038,0.0015,0.0,13.1
1.672,-0.0068,-0.0015,0.0015,-0.0008,13.0
1.673,-0.0046,0.0007,0.009,0.0015,13.0
1.674,-0.0008,0.003,0.012,0.003,12.9
1.675,0.0082,0.0045,0.0067,0.0015,12.9
1.676,0.012,0.0045,0.0037,0.0007,12.8
1.677,0.006,-0.0008,0.009,-0.0008,12.8
1.678,0.0037,-0.0053,0.009,-0.0023,12.7
1.679,0.0052,-0.0046,0.0045,-0.0008,12.6
1.68,0.0015,-0.0053,0.0082,-0.0008,12.6
1.681,-0.0015,-0.0046,0.0105,-0.0008,12.6
1.682,-0.0091,-0.0038,0.0135,0.0007,12.5
1.683,-0.012,-0.0038,0.0172,0.003,12.4
1.684,-0.0098,-0.0038,0.0165,0.003,12.4
1.685,-0.0128,-0.003,0.0127,0.003,12.3
1.686,-0.0113,-0.0038,0.0142,0.0015,12.3
1.687,-0.0143,-0.0046,0.0127,0.0022,12.2
1.688,-0.0173,-0.0053,0.0097,0.0007,12.1
1.689,-0.0143,-0.0046,0.009,0.0015,12.1
1.69,-0.0105,-0.0038,0.0082,0.003,12.1
1.691,-0.0083,-0.003,0.009,0.003,12.0
1.692,-0.0075,-0.0046,0.0022,0.0015,12.0
1.693,-0.0053,-0.0046,-0.0015,0.0015,11.9
1.694,-0.0023,-0.003,-0.0015,-0.0008,11.8
1.695,0.0022,-0.0038,-0.003,0.0007,11.8
1.696,0.0075,-0.0008,0.0022,0.003,11.7
1.697,0.0082,0.0,0.0082,0.0015,11.7
1.698,0.0052,-0.0008,0.0105,0.0022,11.6
1.699,0.003,-0.0008,0.015,0.003,11.6
1.7,0.003,-0.003,0.024,0.0052,11.5
1.701,-0.0023,-0.003,0.0217,0.0045,11.5
1.702,-0.0023,-0.0038,0.0157,0.0022,11.4
1.703,0.0007,-0.0053,0.0202,0.0037,11.4
1.704,-0.0015,-0.003,0.024,0.0015,11.3
1.705,-0.0046,-0.0046,0.0307,0.0022,11.3
1.706,-0.0053,-0.006,0.0345,0.003,11.3
1.707,-0.0046,-0.0083,0.0352,0.0022,11.2
1.708,-0.0075,-0.0068,0.0337,0.003,11.2
1.709,-0.0053,-0.0046,0.039,0.006,11.2
1.71,-0.0083,-0.006,0.048,0.0075,11.1
1.711,-0.0158,-0.0091,0.0502,0.0075,11.1
1.712,-0.0173,-0.0091,0.0555,0.009,11.0
1.713,-0.0248,-0.0098,0.0637,0.0105,11.0
1.714,-0.03,-0.0083,0.0585,0.0105,10.9
1.715,-0.0278,-0.0083,0.0532,0.0075,10.9
1.716,-0.021,-0.0098,0.0532,0.0082,10.9
1.717,-0.0173,-0.0083,0.0525,0.0082,10.8
1.718,-0.0143,-0.0075,0.0487,0.0067,10.8
1.719,-0.0113,-0.0053,0.0427,0.0045,10.7
1.72,-0.0113,-0.0015,0.0352,0.0045,10.7
1.721,-0.0083,-0.0015,0.027,0.0037,10.7
1.722,-0.0053,0.0007,0.0232,0.003,10.7
1.723,-0.003,0.0007,0.0195,0.0045,10.6
1.724,-0.003,0.0007,0.0157,0.003,10.6
1.725,-0.0046,0.0015,0.009,0.0022,10.5
1.726,-0.0023,0.0007,0.006,0.0022,10.5
1.727,-0.003,-0.0015,0.012,0.0007,10.5
1.728,-0.0038,-0.0046,0.0165,0.0015,10.4
1.729,-0.003,-0.006,0.018,0.003,10.4
1.73,-0.0038,-0.0038,0.0142,0.0015,10.4
1.731,0.0,-0.0015,0.009,0.0015,10.3
1.732,0.0015,-0.003,0.0075,0.0015,10.3
1.733,0.0015,-0.0023,0.0067,-0.0008,10.3
1.734,0.0015,-0.0015,0.0067,-0.0015,10.3
1.735,0.0045,-0.0015,0.0015,-0.0008,10.2
1.736,0.0067,0.0,0.0,-0.0008,10.2
1.737,0.0037,-0.0015,0.003,0.0007,10.2
1.738,0.003,-0.0023,0.0045,0.0,10.1
1.739,0.0015,-0.0015,0.0022,-0.0008,10.1
1.74,0.0015,0.0015,0.003,0.0007,10.0
1.741,0.003,0.0007,0.0045,-0.0008,10.0
1.742,0.0015,-0.0008,0.0007,-0.0015,10.0
1.743,0.0015,0.0,0.0007,0.0007,9.9
1.744,-0.0008,-0.0008,0.0022,0.0,9.9
1.745,0.0015,-0.0008,-0.0023,-0.0008,9.8
1.746,0.003,0.0007,-0.0053,-0.003,9.8
1.747,0.0052,0.0015,-0.0098,-0.0053,9.7
1.748,0.0082,0.0022,-0.0143,-0.0046,9.6
1.749,0.009,0.003,-0.0173,-0.0053,9.6
1.75,0.0127,0.003,-0.0181,-0.0038,9.5
1.751,0.0105,0.003,-0.0218,-0.0046,9.5
1.752,0.012,0.0052,-0.027,-0.006,9.4
1.753,0.0127,0.0045,-0.0278,-0.0046,9.4
1.754,0.0105,0.0037,-0.0293,-0.0068,9.3
1.755,0.0097,0.0037,-0.0338,-0.0075,9.3
1.756,0.0082,0.003,-0.0353,-0.0068,9.2
1.757,0.0082,0.0037,-0.0375,-0.0053,9.2
1.758,0.0105,0.0037,-0.039,-0.0046,9.1
1.759,0.0127,0.0052,-0.0405,-0.0053,9.0
1.76,0.0142,0.0067,-0.0368,-0.0038,9.0
1.761,0.0142,0.0052,-0.0353,-0.0046,9.0
1.762,0.0135,0.0075,-0.0361,-0.0046,8.9
1.763,0.0127,0.0082,-0.033,-0.0046,8.9
1.764,0.0127,0.0037,-0.024,-0.0068,8.8
1.765,0.009,0.0015,-0.0158,-0.006,8.8
1.766,0.0082,0.0007,-0.0128,-0.0053,8.7
1.767,0.0037,0.0007,-0.0105,-0.0046,8.7
1.768,0.0007,0.0007,-0.015,-0.003,8.6
1.769,0.0007,0.0015,-0.0165,-0.0015,8.6
1.77,0.0007,0.003,-0.0181,-0.0023,8.5
1.771,0.0015,0.003,-0.0225,-0.0008,8.5
1.772,0.0007,0.0015,-0.0128,-0.0008,8.4
1.773,0.003,0.0015,-0.0091,-0.0015,8.4
1.774,0.0015,0.0037,-0.0128,-0.003,8.3
1.775,0.003,0.003,-0.0181,-0.0038,8.3
1.776,0.0052,0.0022,-0.0195,-0.0015,8.2
1.777,0.003,0.003,-0.0113,-0.0015,8.2
1.778,0.0037,0.0015,-0.006,-0.0015,8.1
1.779,0.0007,0.0015,-0.0023,0.0007,8.1
1.78,-0.0015,0.0007,-0.0023,0.0,8.0
1.781,-0.0015,0.0007,-0.0038,-0.0015,8.0
1.782,-0.0015,0.0,-0.0038,-0.0023,8.0
1.783,0.0,-0.0008,-0.0038,0.0007,7.9
1.784,0.0,0.0015,-0.0046,0.0,7.8
1.785,0.0015,0.0022,-0.012,-0.003,7.8
1.786,0.0045,0.0015,-0.015,-0.003,7.7
1.787,0.0052,0.003,-0.0135,-0.0038,7.6
1.788,0.0067,0.0045,-0.0135,-0.0046,7.6
1.789,0.009,0.0037,-0.015,-0.0053,7.6
1.79,0.0067,0.0015,-0.0158,-0.0038,7.5
1.791,0.0045,0.0007,-0.0181,-0.003,7.4
1.792,0.0052,0.003,-0.024,-0.003,7.4
1.793,0.0052,0.0045,-0.0203,-0.0015,7.3
1.794,0.0045,0.0045,-0.015,-0.003,7.2
1.795,0.003,0.0037,-0.0135,-0.0046,7.2
1.796,0.0045,0.003,-0.0128,-0.003,7.2
1.797,0.0067,0.0015,-0.0135,-0.0023,7.1
1.798,0.0052,0.003,-0.012,-0.0008,7.0
1.799,0.0045,0.0015,-0.0098,0.0,7.0
1.8,0.006,0.0,-0.0053,0.0007,6.9
1.801,0.0007,-0.0023,-0.003,0.0007,6.9
1.802,-0.0008,-0.003,-0.0046,-0.0008,6.8
1.803,0.003,0.0007,-0.0105,-0.0046,6.8
1.804,0.0015,0.0,-0.0128,-0.0046,6.7
1.805,0.0007,-0.0008,-0.0098,-0.0023,6.7
1.806,0.0,-0.0015,-0.0083,-0.0015,6.7
1.807,0.0015,-0.003,-0.0091,-0.0023,6.6
1.808,0.0007,-0.0008,-0.012,-0.0008,6.6
1.809,0.0,0.0,-0.0113,0.0015,6.5
1.81,-0.0008,0.0007,-0.0075,0.0022,6.5
1.811,-0.0015,0.0007,-0.0046,0.0015,6.5
1.812,-0.0015,0.0015,0.0007,0.0015,6.4
1.813,-0.003,0.0007,0.0045,0.0015,6.4
1.814,-0.003,0.0022,0.0015,0.0015,6.3
1.815,-0.0038,0.0022,0.0037,0.0007,6.3
1.816,-0.0053,0.0007,0.009,-0.0008,6.3
1.817,-0.003,0.0007,0.009,0.0,6.2
1.818,-0.0008,-0.0008,0.0067,0.0007,6.2
1.819,-0.0008,0.0,-0.0023,-0.0008,6.1
1.82,0.0015,-0.0008,-0.0008,0.0007,6.0
1.821,0.0015,-0.0023,0.0075,0.0015,6.0
1.822,-0.0008,-0.0015,0.003,-0.0015,6.0
1.823,0.0052,-0.003,0.0015,0.0007,5.9
1.824,0.0022,-0.0038,0.0037,0.0015,5.9
1.825,0.0,-0.0015,0.0007,-0.0008,5.9
1.826,0.0007,-0.0008,0.0022,0.0007,5.8
1.827,-0.0015,-0.0023,0.0052,0.0,5.8
1.828,-0.0023,-0.003,0.0052,-0.0008,5.8
1.829,-0.0053,0.0,0.0045,-0.0015,5.7
1.83,-0.0023,0.0015,0.0,-0.0053,5.7
1.831,0.0,-0.0008,-0.0008,-0.0046,5.7
1.832,-0.0023,-0.003,0.0045,-0.003,5.6
1.833,-0.0053,-0.0046,0.0105,0.0007,5.6
1.834,-0.0083,-0.006,0.0172,0.0007,5.5
1.835,-0.0075,-0.0068,0.018,-0.0046,5.5
1.836,-0.0075,-0.0068,0.0217,-0.0068,5.4
1.837,-0.0083,-0.0068,0.0217,-0.0083,5.4
1.838,-0.0083,-0.0046,0.018,-0.0068,5.4
1.839,-0.0075,-0.0053,0.0202,-0.0023,5.3
1.84,-0.0075,-0.0068,0.0172,-0.0015,5.3
1.841,-0.006,-0.003,0.015,-0.0008,5.3
1.842,-0.0046,-0.0015,0.0127,-0.0008,5.2
1.843,-0.0038,-0.003,0.0127,0.0007,5.2
1.844,-0.003,-0.0023,0.0127,0.0015,5.1
1.845,-0.003,-0.0023,0.009,0.003,5.1
1.846,-0.0038,-0.0008,0.0105,0.0052,5.0
1.847,-0.003,0.0,0.0105,0.0052,5.0
1.848,-0.0038,-0.0008,0.0082,0.003,4.9
1.849,-0.0053,-0.0015,0.009,0.003,4.9
1.85,-0.0053,-0.0015,0.0082,0.0015,4.9
1.851,-0.0015,0.0007,-0.006,-0.003,4.8
1.852,0.0045,0.003,-0.0181,-0.0015,4.8
1.853,0.0045,0.003,-0.0083,0.0015,4.7
1.854,0.0015,0.0007,0.0075,0.0052,4.7
1.855,-0.0015,-0.003,0.0195,0.0045,4.6
1.856,0.0007,-0.0015,0.0022,-0.0008,4.6
1.857,0.0052,0.0007,0.0015,-0.0008,4.5
1.858,0.0007,-0.0015,0.0165,0.0007,4.5
1.859,-0.0008,0.0,0.0135,0.0015,4.5
1.86,-0.0023,-0.0008,0.0157,0.0015,4.4
1.861,-0.0015,0.0,0.0082,0.0007,4.4
1.862,-0.0015,-0.0008,0.0127,0.003,4.3
1.863,-0.0053,-0.003,0.018,0.0015,4.3
1.864,-0.0046,-0.0053,0.0202,0.0007,4.2
1.865,-0.0053,-0.0046,0.0195,0.0015,4.2
1.866,-0.0015,-0.003,0.015,-0.0008,4.2
1.867,-0.0008,-0.0046,0.018,0.003,4.1
1.868,-0.0008,-0.0015,0.0127,0.003,4.1
1.869,0.0015,0.0015,0.0097,0.0007,4.0
1.87,0.0,0.003,0.0052,-0.0008,4.0
1.871,0.0007,0.003,0.006,0.0,4.0
1.872,-0.0015,0.0015,0.009,0.003,3.9
1.873,-0.0023,0.003,0.0082,0.0022,3.9
1.874,-0.0015,0.0007,0.0045,0.0015,3.8
1.875,-0.0023,0.0007,-0.0038,0.0015,3.8
1.876,-0.0008,0.0007,-0.0008,0.003,3.8
1.877,-0.0046,-0.0008,0.0015,0.0015,3.7
1.878,-0.0053,-0.0023,-0.0008,0.0015,3.7
1.879,-0.0023,-0.0023,0.0015,0.003,3.6
1.88,-0.0046,-0.0053,0.006,0.0045,3.6
1.881,-0.0053,-0.0083,0.0067,0.006,3.6
1.882,-0.0053,-0.0068,0.0022,0.0082,3.6
1.883,-0.003,-0.0015,0.0015,0.0045,3.6
1.884,-0.0046,-0.0015,0.0037,0.0,3.5
1.885,-0.0046,-0.0023,0.0007,-0.0023,3.5
1.886,-0.0008,0.0,-0.003,-0.0046,3.5
1.887,-0.0008,-0.0015,-0.0046,-0.0046,3.5
1.888,0.0007,-0.0038,-0.0038,-0.006,3.5
1.889,0.0,-0.0053,0.0,-0.003,3.4
1.89,0.0,-0.0008,-0.0015,-0.0015,3.4
1.891,0.0037,0.0015,-0.0083,-0.0015,3.4
1.892,0.0082,0.003,-0.0098,0.0,3.4
1.893,0.0105,0.0045,-0.0008,0.0007,3.4
1.894,0.0105,0.0022,0.003,0.0007,3.3
1.895,0.0105,0.003,0.0,-0.0008,3.3
1.896,0.0067,0.0,0.003,0.0,3.3
1.897,0.0045,-0.0015,0.003,0.0007,3.3
1.898,0.003,-0.0015,0.0007,0.0007,3.3
1.899,0.0045,-0.0008,0.0022,0.003,3.2
1.9,0.0007,0.0,0.0045,0.0045,3.2
1.901,-0.003,0.0015,0.0015,0.0045,3.2
1.902,-0.0008,0.0045,-0.006,0.0022,3.2
1.903,-0.0008,0.0022,-0.0083,0.0007,3.2
1.904,0.0007,0.0015,-0.0105,-0.0008,3.2
1.905,0.0015,0.0015,-0.0135,-0.0008,3.2
1.906,0.0045,0.0015,-0.0165,-0.0015,3.2
1.907,0.0045,0.0022,-0.0218,-0.0038,3.1
1.908,0.0067,0.0015,-0.024,-0.003,3.1
1.909,0.009,0.0037,-0.0248,-0.0015,3.1
1.91,0.0105,0.0045,-0.021,-0.0015,3.1
1.911,0.009,0.0052,-0.0195,-0.0015,3.1
1.912,0.0052,0.0045,-0.015,-0.003,3.1
1.913,0.003,0.0007,-0.006,0.0,3.1
1.914,-0.0015,-0.0015,0.0015,0.0015,3.1
1.915,-0.0038,-0.003,0.0015,-0.0008,3.1
1.916,-0.003,-0.003,-0.003,0.0,3.1
1.917,-0.0053,-0.0023,0.0082,0.003,3.1
1.918,-0.0053,-0.0008,0.0112,0.0037,3.0
1.919,-0.0046,-0.0015,0.0127,0.003,3.0
1.92,-0.0068,-0.0015,0.0195,0.0052,3.0
1.921,-0.0046,-0.0008,0.0165,0.0052,3.0
1.922,-0.0083,-0.003,0.021,0.0045,3.0
1.923,-0.0068,-0.0008,0.0172,0.0045,3.0
1.924,-0.0046,-0.0008,0.015,0.0015,3.0
1.925,-0.0023,-0.0008,0.012,0.0007,3.0
1.926,0.0015,-0.0015,0.0082,0.0007,3.0
1.927,-0.003,-0.0068,0.0165,0.0,3.0
1.928,-0.0046,-0.0075,0.0187,0.0022,3.0
1.929,-0.0046,-0.0068,0.0202,0.003,3.0
1.93,-0.0023,-0.0046,0.0142,0.0015,2.9
1.931,0.0015,-0.0008,0.0045,0.0007,2.9
1.932,0.0037,-0.0008,0.0015,-0.0015,2.9
1.933,0.0052,-0.0008,-0.0008,0.0007,2.9
1.934,0.0037,0.0015,-0.0046,0.0015,2.9
1.935,0.0067,0.003,-0.0135,-0.0015,2.9
1.936,0.0097,0.0052,-0.0225,-0.0023,2.9
1.937,0.0105,0.0082,-0.027,-0.003,2.9
1.938,0.012,0.009,-0.0278,-0.0053,2.9
1.939,0.0097,0.0075,-0.0285,-0.006,2.9
1.94,0.0112,0.0067,-0.027,-0.0046,2.8
1.941,0.0097,0.0067,-0.024,-0.0046,2.8
1.942,0.0075,0.0045,-0.027,-0.0046,2.8
1.943,0.0082,0.0037,-0.024,-0.0038,2.8
1.944,0.009,0.0037,-0.0218,-0.0038,2.8
1.945,0.0082,0.0045,-0.0225,-0.006,2.8
1.946,0.009,0.0052,-0.024,-0.0083,2.8
1.947,0.012,0.0067,-0.0293,-0.0068,2.8
1.948,0.0105,0.0067,-0.03,-0.0015,2.8
1.949,0.0097,0.0052,-0.0308,-0.0008,2.8
1.95,0.0075,0.003,-0.0285,-0.0046,2.9
1.951,0.0052,0.0015,-0.0248,-0.0068,2.9
1.952,0.006,0.003,-0.0256,-0.0098,2.9
1.953,0.0067,0.003,-0.0256,-0.012,2.9
1.954,0.0067,0.003,-0.0256,-0.0091,2.9
1.955,0.0045,0.003,-0.0203,-0.0046,2.9
1.956,0.0052,-0.0015,-0.021,-0.0008,2.9
1.957,0.0052,-0.0038,-0.0181,0.0007,2.9
1.958,0.003,-0.0038,-0.0143,0.0015,2.9
1.959,0.0007,-0.0015,-0.0113,0.0007,2.9
1.96,-0.0008,-0.0023,0.0007,0.003,2.9
1.961,-0.0046,-0.0053,0.009,0.0007,2.9
1.962,-0.0091,-0.0068,0.018,-0.0008,2.9
1.963,-0.0113,-0.0105,0.0255,0.0045,2.9
1.964,-0.0135,-0.0091,0.0262,0.006,2.9
1.965,-0.0105,-0.0075,0.0292,0.0015,3.0
1.966,-0.0128,-0.0083,0.0345,-0.0015,3.0
1.967,-0.015,-0.0083,0.036,-0.0023,3.0
1.968,-0.012,-0.0068,0.0285,-0.0038,3.0
1.969,-0.0105,-0.003,0.0202,0.0007,3.0
1.97,-0.006,-0.0023,0.0127,0.0015,3.1
1.971,-0.003,-0.0015,0.0067,-0.0008,3.1
1.972,-0.0008,0.0007,0.0082,0.0,3.1
1.973,0.0007,0.0007,0.0067,0.0,3.1
1.974,0.0007,0.0015,0.0,0.0015,3.1
1.975,0.0015,0.0015,-0.0053,-0.0008,3.1
1.976,0.003,0.0015,-0.003,-0.0015,3.1
1.977,0.003,0.0015,-0.0008,0.0007,3.1
1.978,0.0022,0.0022,-0.0023,0.0,3.1
1.979,0.0007,0.0037,-0.003,-0.0008,3.2
1.98,0.0,0.0037,-0.0075,-0.0015,3.2
1.981,0.0015,0.003,-0.0105,-0.003,3.2
1.982,0.0022,0.0015,-0.0068,-0.003,3.2
1.983,0.0015,-0.0008,-0.0008,-0.003,3.2
1.984,-0.0008,-0.0015,0.0007,-0.0038,3.3
1.985,0.003,0.0007,-0.0053,-0.003,3.3
1.986,0.0045,0.0022,-0.0091,-0.0046,3.3
1.987,0.0052,0.003,-0.0158,-0.0075,3.3
1.988,0.009,0.0022,-0.021,-0.0075,3.3
1.989,0.0097,0.0015,-0.0165,-0.006,3.4
1.99,0.009,0.003,-0.0158,-0.0053,3.4
1.991,0.0082,0.003,-0.0203,-0.0083,3.4
1.992,0.0097,0.0045,-0.0195,-0.0075,3.4
1.993,0.0075,0.0015,-0.0098,-0.003,3.4
1.994,0.0045,0.0,-0.0053,-0.0046,3.5
1.995,0.003,0.0007,-0.003,-0.0038,3.5
1.996,-0.0008,-0.0015,0.0045,-0.0008,3.5
1.997,-0.003,0.0007,0.0067,-0.0015,3.5
1.998,-0.0053,-0.0008,0.0067,-0.0015,3.5
1.999,-0.0038,-0.0015,0.0082,-0.0046,3.6
2.0,-0.003,-0.0008,0.0127,-0.003,3.6
2.001,-0.0053,-0.003,0.0097,-0.0015,3.6
2.002,-0.0015,-0.0015,0.003,-0.0015,3.6
2.003,-0.0015,-0.0015,0.003,-0.0015,3.6
2.004,-0.003,-0.003,0.003,-0.0015,3.7
2.005,-0.0038,-0.003,0.0075,-0.0008,3.7
2.006,-0.0023,-0.0015,0.009,-0.0008,3.7
2.007,-0.0015,0.0,0.0075,-0.0008,3.8
2.008,-0.0008,-0.0008,0.0067,-0.0008,3.8
2.009,0.0007,-0.0008,0.0067,0.0015,3.8
2.01,-0.0008,-0.0015,0.0135,0.0022,3.9
2.011,-0.0046,-0.0023,0.0157,0.0015,3.9
2.012,-0.0046,-0.0008,0.0142,0.0037,3.9
2.013,-0.003,-0.0023,0.0112,0.0022,3.9
2.014,-0.003,-0.0023,0.0075,0.0015,4.0
2.015,-0.003,-0.0015,0.009,0.0015,4.0
2.016,-0.003,-0.0038,0.012,0.003,4.0
2.017,-0.003,-0.0023,0.0157,0.0037,4.0
2.018,-0.003,-0.0038,0.0135,0.003,4.1
2.019,-0.0015,-0.0023,0.009,0.0022,4.1
2.02,-0.003,-0.0015,0.006,0.003,4.1
2.021,-0.0015,-0.003,0.0052,0.0015,4.2
2.022,-0.0008,-0.0015,0.0052,0.0022,4.2
2.023,-0.0008,-0.0008,0.0067,0.0037,4.3
2.024,0.0015,0.0007,0.0067,0.0045,4.4
2.025,0.0015,-0.0008,0.0015,0.0037,4.4
2.026,0.0015,-0.0008,0.0045,0.0015,4.5
2.027,-0.0015,0.0,0.009,0.0015,4.5
2.028,-0.0015,-0.0008,0.0105,0.0022,4.6
2.029,0.0,-0.0015,0.0135,0.0015,4.6
2.03,-0.0015,-0.0023,0.0082,0.0037,4.7
2.031,0.0,-0.0008,0.0067,0.003,4.7
2.032,-0.0008,0.0,0.0082,0.0007,4.8
2.033,-0.0008,0.0,0.0045,0.0007,4.9
2.034,-0.003,-0.0008,0.0052,0.0015,4.9
2.035,-0.0015,0.0015,0.0045,0.0007,4.9
2.036,-0.003,0.0015,0.0007,-0.0008,5.0
2.037,-0.0015,0.0007,0.0,-0.0008,5.0
2.038,0.0015,0.0007,-0.003,0.0,5.1
2.039,0.0015,-0.0008,-0.0053,0.0015,5.2
2.04,0.0045,0.0,-0.006,0.0015,5.2
2.041,0.0052,-0.0008,-0.0068,0.0007,5.3
2.042,0.0037,-0.0008,-0.0053,0.0,5.3
2.043,0.0007,-0.0008,0.0007,0.0,5.4
2.044,-0.0008,-0.0008,0.003,0.0015,5.5
2.045,-0.003,0.0015,0.0082,0.0022,5.6
2.046,-0.0046,-0.0008,0.012,0.0015,5.7
2.047,-0.0046,-0.0023,0.0097,0.0022,5.8
2.048,-0.003,-0.003,0.0067,0.0015,5.8
2.049,-0.003,-0.0053,0.0037,0.0,5.9
2.05,-0.0053,-0.006,0.009,0.0015,6.0
2.051,-0.0053,-0.0053,0.0075,-0.0008,6.1
2.052,-0.003,-0.0038,-0.0008,-0.0008,6.1
2.053,-0.0008,-0.003,0.0015,0.0007,6.2
2.054,0.0022,-0.0015,0.0015,-0.0008,6.3
2.055,-0.0023,-0.0008,0.0037,0.0007,6.4
2.056,-0.003,-0.0008,0.006,0.0015,6.4
2.057,-0.0038,-0.0015,0.009,0.0015,6.5
2.058,-0.0038,-0.003,0.006,0.0007,6.6
2.059,0.0,-0.0008,0.0022,-0.0015,6.7
2.06,-0.0008,-0.0015,0.0045,-0.0008,6.7
2.061,0.0007,-0.0008,0.0045,0.0015,6.8
2.062,-0.0023,-0.0038,0.0067,0.003,6.9
2.063,-0.0008,-0.0023,0.0015,0.0015,7.0
2.064,0.0022,0.0007,-0.0091,0.0007,7.1
2.065,0.003,0.0007,-0.0165,0.0,7.2
2.066,0.0082,0.0015,-0.0128,-0.0015,7.3
2.067,0.0052,0.0007,-0.0091,-0.0023,7.4
2.068,0.006,0.0037,-0.0173,-0.003,7.5
2.069,0.0082,0.0052,-0.0181,-0.0046,7.6
2.07,0.0082,0.006,-0.0218,-0.0046,7.6
2.071,0.009,0.0075,-0.0233,-0.0023,7.7
2.072,0.0067,0.0052,-0.0203,-0.0023,7.8
2.073,0.0082,0.0045,-0.024,-0.003,7.9
2.074,0.0052,0.0045,-0.0256,-0.0038,8.0
2.075,0.0045,0.0037,-0.024,-0.0015,8.1
2.076,0.003,0.003,-0.0218,0.0007,8.2
2.077,0.003,0.0015,-0.0195,0.0,8.3
2.078,0.0037,0.0,-0.0173,0.0,8.4
2.079,0.0015,0.0007,-0.0128,0.0015,8.5
2.08,0.0045,-0.0008,-0.0113,0.0015,8.5
2.081,0.0022,0.0,-0.0135,0.0007,8.6
2.082,0.0015,0.0007,-0.015,0.0,8.7
2.083,-0.0008,-0.0015,-0.0098,0.0007,8.8
2.084,-0.0015,0.0007,-0.0128,0.0,8.9
2.085,0.0052,0.0015,-0.0195,-0.0015,9.0
2.086,0.0067,0.0,-0.0188,-0.0015,9.1
2.087,0.006,-0.0015,-0.0181,-0.0023,9.2
2.088,0.0045,0.0,-0.0181,-0.0046,9.3
2.089,0.006,0.0015,-0.0203,-0.0046,9.4
2.09,0.0067,0.0045,-0.0195,-0.003,9.5
2.091,0.0067,0.0067,-0.021,-0.0015,9.6
2.092,0.0097,0.0067,-0.0225,-0.0015,9.7
2.093,0.009,0.0067,-0.0135,0.0,9.8
2.094,0.0067,0.0045,-0.012,-0.0008,9.9
2.095,0.0045,0.003,-0.0105,-0.0008,10.0
2.096,0.0022,0.0007,-0.003,0.0007,10.1
2.097,0.0015,-0.0008,-0.0046,-0.0008,10.2
2.098,-0.0008,0.0007,-0.0015,0.0015,10.3
2.099,-0.003,-0.0008,0.0052,0.0037,10.3
2.1,-0.006,-0.0023,0.009,0.003,10.4
2.101,-0.0075,-0.0015,0.009,0.0015,10.5
2.102,-0.0046,-0.003,0.0105,0.0007,10.7
2.103,-0.0046,-0.0038,0.012,0.0015,10.7
2.104,-0.0038,-0.0046,0.009,0.0015,10.8
2.105,-0.0038,-0.0038,0.0105,0.0015,11.0
2.106,-0.0053,-0.0023,0.009,0.0007,11.1
2.107,-0.006,-0.003,0.009,0.0007,11.2
2.108,-0.006,-0.0038,0.009,0.003,11.3
2.109,-0.0053,-0.003,0.0105,0.0045,11.4
2.11,-0.0091,-0.0046,0.0217,0.0052,11.5
2.111,-0.0091,-0.0068,0.0262,0.0067,11.6
2.112,-0.0098,-0.006,0.0322,0.009,11.7
2.113,-0.012,-0.0068,0.0352,0.0082,11.8
2.114,-0.012,-0.0068,0.0367,0.0082,11.9
2.115,-0.0143,-0.0083,0.0405,0.0067,12.0
2.116,-0.0143,-0.0105,0.0442,0.0075,12.1
2.117,-0.0165,-0.0128,0.0495,0.0082,12.2
2.118,-0.0165,-0.0105,0.0435,0.0075,12.3
2.119,-0.0128,-0.0068,0.0397,0.0052,12.5
2.12,-0.012,-0.0053,0.0367,0.003,12.6
2.121,-0.0068,-0.0015,0.0285,0.0007,12.7
2.122,-0.0046,0.0007,0.0277,0.0015,12.8
2.123,-0.0008,0.0015,0.0232,0.0007,13.0
2.124,0.0037,0.0037,0.0127,-0.0015,13.1
2.125,0.0052,0.003,0.006,-0.0015,13.3
2.126,0.006,-0.0008,0.0,-0.0008,13.4
2.127,0.003,-0.0008,-0.0008,0.0015,13.5
2.128,0.0015,-0.0015,0.0,0.0007,13.7
2.129,0.003,-0.003,-0.0023,-0.0008,13.9
2.13,0.0022,-0.003,-0.0053,-0.0008,14.0
2.131,0.003,-0.003,-0.003,-0.0015,14.1
2.132,0.0015,-0.003,-0.0015,-0.0023,14.3
2.133,0.0015,-0.003,-0.0008,-0.0023,14.4
2.134,0.0007,-0.003,-0.003,-0.003,14.6
2.135,0.0037,-0.0023,-0.012,-0.006,14.7
2.136,0.0052,0.0,-0.012,-0.0091,14.8
2.137,0.0052,0.0007,-0.015,-0.0105,15.0
2.138,0.0052,0.0015,-0.0195,-0.0113,15.2
2.139,0.0067,0.003,-0.0181,-0.0091,15.3
2.14,0.0082,0.003,-0.015,-0.0068,15.4
2.141,0.0045,0.0015,-0.0105,-0.006,15.6
2.142,0.0045,0.003,-0.0165,-0.0046,15.8
2.143,0.0052,0.0045,-0.012,-0.0015,16.0
2.144,0.0007,0.0015,0.0045,0.0015,16.2
2.145,-0.003,0.0022,0.0157,0.003,16.3
2.146,-0.0083,0.0,0.0232,0.003,16.5
2.147,-0.006,-0.0008,0.0112,-0.0008,16.6
2.148,0.0,0.0045,-0.006,-0.0046,16.8
2.149,0.0045,0.0082,-0.027,-0.0075,17.0
2.15,0.0142,0.0127,-0.0413,-0.0083,17.2
2.151,0.0172,0.0105,-0.0465,-0.0083,17.4
2.152,0.0165,0.0112,-0.054,-0.0075,17.5
2.153,0.018,0.0112,-0.0511,-0.0068,17.7
2.154,0.0165,0.009,-0.0518,-0.0068,17.9
2.155,0.018,0.009,-0.0465,-0.006,18.1
2.156,0.015,0.0067,-0.0436,-0.006,18.2
2.157,0.0142,0.006,-0.0465,-0.0053,18.4
2.158,0.0157,0.0037,-0.0428,-0.0053,18.6
2.159,0.0135,0.0015,-0.0353,-0.0046,18.8
2.16,0.0112,0.0,-0.027,-0.006,18.9
2.161,0.0105,0.003,-0.0278,-0.0068,19.2
2.162,0.0105,0.0052,-0.0225,-0.0053,19.4
2.163,0.009,0.0037,-0.0218,-0.0068,19.6
2.164,0.009,0.0052,-0.0218,-0.006,19.8
2.165,0.006,0.0052,-0.012,-0.003,20.1
2.166,0.0015,0.003,0.0007,-0.0015,20.3
2.167,-0.003,0.0007,0.0105,-0.0008,20.5
2.168,-0.0046,-0.0023,0.0135,0.0015,20.7
2.169,-0.0046,-0.003,0.021,0.003,21.0
2.17,-0.0053,-0.0015,0.0165,0.003,21.2
2.171,-0.003,-0.0015,0.0127,0.0022,21.4
2.172,-0.0023,-0.0038,0.0142,0.0007,21.6
2.173,-0.0038,-0.0038,0.0142,-0.0008,21.9
2.174,-0.0046,-0.0046,0.015,-0.0015,22.1
2.175,-0.003,-0.003,0.0097,-0.0015,22.3
2.176,-0.003,-0.0053,0.0165,0.0007,22.5
2.177,-0.006,-0.0046,0.0217,0.0015,22.8
2.178,-0.0091,-0.0046,0.0202,0.003,23.0
2.179,-0.0075,-0.006,0.0195,0.003,23.2
2.18,-0.0083,-0.0053,0.0142,0.0022,23.4
2.181,-0.0075,-0.006,0.0195,0.003,23.7
2.182,-0.0098,-0.0046,0.0255,0.0022,24.0
2.183,-0.0113,-0.003,0.027,0.0015,24.3
2.184,-0.0105,-0.0038,0.0277,0.0007,24.5
2.185,-0.0091,-0.0023,0.0202,-0.0015,24.7
2.186,-0.0046,-0.0008,0.0142,-0.0008,25.0
2.187,-0.0015,-0.0008,0.0135,-0.0008,25.3
2.188,-0.0046,-0.0015,0.0195,0.0,25.6
2.189,-0.0068,-0.0038,0.021,0.0007,25.8
2.19,-0.0053,-0.0038,0.0142,-0.0008,26.1
2.191,-0.003,-0.0015,0.0105,-0.0015,26.3
2.192,-0.0008,-0.0015,0.0082,0.0,26.6
2.193,-0.003,-0.0046,0.0165,0.0015,26.9
2.194,-0.0053,-0.003,0.0195,0.0015,27.1
2.195,-0.0083,-0.0023,0.0262,0.003,27.4
2.196,-0.0135,-0.0053,0.0367,0.0037,27.7
2.197,-0.0105,-0.0053,0.0307,0.0007,27.9
2.198,-0.0083,-0.0046,0.0285,0.0,28.2
2.199,-0.0098,-0.006,0.0277,0.0022,28.4
2.2,-0.0083,-0.0053,0.0292,0.003,28.7
2.201,-0.0083,-0.006,0.0262,0.003,29.0
2.202,-0.0053,-0.0053,0.0232,0.0045,29.2
2.203,-0.003,-0.0053,0.0262,0.0052,29.5
2.204,-0.0068,-0.0046,0.0277,0.0045,29.7
2.205,-0.0091,-0.0008,0.0345,0.0045,30.0
2.206,-0.0105,-0.0015,0.0412,0.0067,30.2
2.207,-0.012,-0.0038,0.0427,0.0052,30.5
2.208,-0.0105,-0.0038,0.0405,0.0052,30.8
2.209,-0.0128,-0.0068,0.0465,0.006,31.0
2.21,-0.0158,-0.0083,0.0532,0.0075,31.3
2.211,-0.015,-0.0083,0.0502,0.0082,31.5
2.212,-0.0165,-0.012,0.0532,0.006,31.8
2.213,-0.015,-0.0135,0.045,0.006,32.1
2.214,-0.0113,-0.0105,0.0367,0.0045,32.4
2.215,-0.0091,-0.0075,0.0307,0.0045,32.6
2.216,-0.0053,-0.0053,0.0232,0.0045,32.8
2.217,-0.0015,-0.0053,0.024,0.0015,33.1
2.218,0.0015,-0.0046,0.0127,0.0007,33.4
2.219,0.0045,-0.0008,0.0037,0.0007,33.6
2.22,0.0075,0.0007,-0.0046,-0.0015,33.9
2.221,0.009,0.003,-0.0068,0.0015,34.1
2.222,0.0067,0.0015,-0.0046,0.0007,34.3
2.223,0.0097,0.0015,-0.0135,-0.0008,34.6
2.224,0.0105,0.003,-0.0135,0.0015,34.7
2.225,0.0082,0.0045,-0.0165,0.0,35.0
2.226,0.0067,0.0052,-0.0181,0.0015,35.2
2.227,0.0075,0.0037,-0.0158,0.0022,35.4
2.228,0.0082,0.0052,-0.0225,-0.0008,35.6
2.229,0.009,0.006,-0.0256,-0.0023,35.9
2.23,0.012,0.0067,-0.0278,-0.0023,36.1
2.231,0.0097,0.0067,-0.0315,-0.003,36.3
2.232,0.0105,0.0067,-0.0315,-0.0023,36.5
2.233,0.0082,0.0037,-0.021,-0.0008,36.7
2.234,0.0052,0.0015,-0.0203,-0.003,36.9
2.235,0.0067,0.003,-0.024,-0.0038,37.2
2.236,0.0067,0.0022,-0.0256,-0.003,37.4
2.237,0.0075,0.003,-0.0248,-0.0023,37.6
2.238,0.0045,0.0015,-0.0113,0.0,37.8
2.239,0.0007,0.0007,-0.0068,0.0,38.0
2.24,-0.0008,0.0007,-0.003,-0.0015,38.2
2.241,0.003,0.003,-0.012,-0.0046,38.5
2.242,0.0082,0.006,-0.0181,-0.0046,38.6
2.243,0.0082,0.0037,-0.015,-0.0023,38.9
2.244,0.0105,0.0052,-0.0293,-0.0083,39.1
2.245,0.012,0.0052,-0.0323,-0.0083,39.3
2.246,0.0105,0.003,-0.033,-0.0083,39.5
2.247,0.0097,0.0007,-0.0278,-0.0091,39.7
2.248,0.0052,-0.0015,-0.0195,-0.0046,39.9
2.249,0.0052,-0.0008,-0.0128,-0.0068,40.1
2.25,0.003,0.0007,-0.0135,-0.0091,40.3
2.251,0.0082,0.003,-0.0338,-0.0128,40.5
2.252,0.018,0.0052,-0.0436,-0.015,40.7
2.253,0.0157,0.0067,-0.0465,-0.0135,40.9
2.254,0.0157,0.0067,-0.0443,-0.0143,41.1
2.255,0.0165,0.0045,-0.0458,-0.0128,41.3
2.256,0.0157,0.0067,-0.0503,-0.012,41.5
2.257,0.0165,0.0082,-0.0503,-0.0143,41.7
2.258,0.0165,0.0082,-0.0638,-0.0165,41.9
2.259,0.0195,0.0097,-0.063,-0.0143,42.1
2.26,0.0135,0.0067,-0.0518,-0.0113,42.3
2.261,0.009,0.0052,-0.0495,-0.012,42.6
2.262,0.009,0.0045,-0.0368,-0.0105,42.8
2.263,0.0052,0.0037,-0.0293,-0.0091,43.0
2.264,0.0045,0.0015,-0.0233,-0.0068,43.2
2.265,0.0022,-0.0015,-0.0165,-0.006,43.4
2.266,0.0015,-0.0008,-0.0218,-0.006,43.6
2.267,0.0022,-0.0008,-0.0195,-0.0046,43.9
2.268,0.0015,-0.0008,-0.0195,-0.0053,44.1
2.269,0.0007,0.0,-0.0181,-0.0046,44.3
2.27,0.0,0.0007,-0.0143,-0.003,44.5
2.271,0.003,0.0015,-0.0083,0.0,44.7
2.272,0.0022,0.0015,-0.0008,0.0045,45.0
2.273,0.003,0.0015,-0.0015,0.0067,45.1
2.274,0.0067,0.0015,-0.003,0.0067,45.4
2.275,0.0052,0.0015,-0.0008,0.0045,45.6
2.276,0.003,-0.0015,0.009,0.0067,45.8
2.277,-0.0008,-0.0015,0.0105,0.0067,46.0
2.278,-0.0046,-0.0023,0.018,0.0067,46.2
2.279,-0.0075,-0.0008,0.0255,0.0082,46.4
2.28,-0.0075,0.0015,0.0195,0.0075,46.7
2.281,-0.0091,-0.0023,0.0247,0.0082,46.9
2.282,-0.012,-0.0038,0.0292,0.009,47.1
2.283,-0.012,-0.0053,0.0315,0.012,47.3
2.284,-0.012,-0.0046,0.0307,0.0112,47.6
2.285,-0.012,-0.0038,0.024,0.009,47.8
2.286,-0.0105,-0.0068,0.0232,0.0082,48.0
2.287,-0.012,-0.0038,0.0165,0.0082,48.2
2.288,-0.0113,-0.0038,0.018,0.009,48.5
2.289,-0.0091,-0.0053,0.0157,0.0067,48.7
2.29,-0.0083,-0.0053,0.0127,0.0052,48.9
2.291,-0.0046,-0.0053,0.012,0.0052,49.1
2.292,-0.0008,-0.0015,0.0067,0.0045,49.3
2.293,-0.0023,-0.0008,0.0037,0.0052,49.5
2.294,-0.0015,0.0,-0.0008,0.0037,49.8
2.295,0.0007,-0.0008,0.0007,0.003,50.0
2.296,0.0007,-0.003,0.0045,0.0022,50.2
2.297,-0.0008,-0.0015,0.0037,0.0015,50.4
2.298,0.0015,-0.0015,0.003,0.0037,50.7
2.299,0.0015,-0.0015,0.006,0.0052,50.9
2.3,-0.0015,-0.003,0.0105,0.0052,51.1
2.301,0.0,-0.003,0.0052,0.0045,51.3
2.302,0.0015,-0.0023,0.003,0.0045,51.5
2.303,0.0,-0.0023,0.0015,0.0045,51.7
2.304,-0.0015,-0.0015,0.003,0.0052,51.9
2.305,-0.003,-0.0015,0.0075,0.0052,52.1
2.306,-0.0053,-0.0008,0.0082,0.0067,52.3
2.307,-0.0068,-0.0015,0.0075,0.0067,52.5
2.308,-0.0046,-0.0008,0.0052,0.0052,52.7
2.309,-0.0015,0.0007,0.0045,0.0082,52.9
2.31,-0.0008,-0.0015,0.0142,0.0082,53.1
2.311,-0.003,-0.003,0.0202,0.0082,53.3
2.312,-0.0083,-0.0023,0.0255,0.009,53.5
2.313,-0.0091,0.0,0.0307,0.0082,53.7
2.314,-0.0083,0.0,0.033,0.009,53.9
2.315,-0.0075,-0.0023,0.0345,0.0097,54.0
2.316,-0.0068,-0.0046,0.0337,0.0097,54.3
2.317,-0.0091,-0.0038,0.033,0.009,54.4
2.318,-0.0083,-0.0023,0.027,0.006,54.6
2.319,-0.0068,-0.0015,0.024,0.006,54.9
2.32,-0.0046,-0.0015,0.021,0.0045,55.0
2.321,-0.003,-0.003,0.024,0.0037,55.2
2.322,-0.0068,-0.0046,0.0277,0.0052,55.3
2.323,-0.0083,-0.0053,0.0255,0.003,55.4
2.324,-0.0075,-0.0046,0.0277,0.0015,55.5
2.325,-0.0075,-0.0046,0.0255,0.0015,55.6
2.326,-0.0083,-0.0053,0.027,0.0007,55.8
2.327,-0.0091,-0.0053,0.027,0.0,55.8
2.328,-0.0083,-0.0053,0.0255,-0.0015,56.0
2.329,-0.0083,-0.0075,0.0247,-0.0023,56.1
2.33,-0.0068,-0.0068,0.0202,-0.003,56.2
2.331,-0.0053,-0.0068,0.018,-0.0046,56.3
2.332,-0.0068,-0.006,0.0142,-0.006,56.4
2.333,-0.0091,-0.0053,0.0142,-0.0053,56.6
2.334,-0.0053,-0.0046,0.0052,-0.0068,56.7
2.335,-0.0008,-0.0015,-0.0075,-0.0091,56.8
2.336,0.0022,0.0,-0.0135,-0.0098,56.9
2.337,0.0067,0.003,-0.0218,-0.0083,57.0
2.338,0.0075,0.0052,-0.0233,-0.0091,57.1
2.339,0.0105,0.0052,-0.0256,-0.0091,57.2
2.34,0.0112,0.0045,-0.0256,-0.012,57.4
2.341,0.012,0.0045,-0.0278,-0.0143,57.5
2.342,0.0142,0.0075,-0.0315,-0.0135,57.6
2.343,0.0135,0.0067,-0.0218,-0.012,57.6
2.344,0.012,0.0067,-0.0188,-0.0113,57.7
2.345,0.0105,0.006,-0.015,-0.0091,57.8
2.346,0.0105,0.0045,-0.0165,-0.0083,57.9
2.347,0.012,0.006,-0.0203,-0.0068,58.0
2.348,0.012,0.0075,-0.0165,-0.0053,58.0
2.349,0.0082,0.0067,-0.0143,-0.0053,58.1
2.35,0.0067,0.0052,-0.0098,-0.0046,58.2
2.351,0.0037,0.003,-0.0128,-0.0046,58.3
2.352,0.0052,0.003,-0.0195,-0.003,58.4
2.353,0.0082,0.0045,-0.0233,-0.0023,58.4
2.354,0.009,0.0052,-0.0218,-0.0015,58.5
2.355,0.0082,0.0052,-0.0158,-0.0008,58.6
2.356,0.0067,0.0045,-0.0113,0.0,58.7
2.357,0.0082,0.0022,-0.0105,0.0,58.8
2.358,0.0067,0.003,-0.0135,-0.0008,58.8
2.359,0.0052,0.0022,-0.0105,-0.0008,58.9
2.36,0.0007,0.0022,-0.0091,-0.0015,59.0
2.361,0.0022,0.0015,-0.012,-0.0023,59.0
2.362,0.0,0.0022,-0.0105,-0.0015,59.0
2.363,-0.0008,0.003,-0.0143,-0.0046,59.0
2.364,0.0015,0.0015,-0.0165,-0.0038,59.1
2.365,-0.0008,0.003,-0.0165,-0.0053,59.1
2.366,-0.0015,0.003,-0.012,-0.0053,59.1
2.367,-0.0023,0.0007,-0.0105,-0.0075,59.1
2.368,0.0007,0.0022,-0.0181,-0.0083,59.2
2.369,0.0015,0.0007,-0.0195,-0.0083,59.2
2.37,0.0045,-0.0008,-0.021,-0.0075,59.2
2.371,0.003,0.0007,-0.0203,-0.0046,59.2
2.372,0.0015,0.0007,-0.015,-0.0023,59.2
2.373,0.006,0.0007,-0.0135,-0.0008,59.3
2.374,0.0075,0.0015,-0.0181,-0.0008,59.3
2.375,0.0097,0.0022,-0.021,-0.0015,59.3
2.376,0.0067,0.0015,-0.0143,-0.0008,59.3
2.377,0.0045,-0.0008,-0.0113,-0.0015,59.4
2.378,0.003,-0.0015,-0.0113,-0.003,59.4
2.379,0.0015,-0.0046,-0.0091,-0.003,59.4
2.38,0.0007,-0.0046,-0.0083,-0.003,59.4
2.381,-0.0015,-0.0046,-0.0068,-0.003,59.4
2.382,-0.0008,-0.0046,-0.006,-0.003,59.4
2.383,-0.003,-0.0046,-0.0015,-0.003,59.4
2.384,-0.0046,-0.0038,-0.003,-0.0015,59.3
2.385,0.0007,-0.0023,-0.0053,-0.0008,59.3
2.386,0.003,-0.0015,-0.003,0.0,59.2
2.387,0.006,0.0,-0.0053,0.0022,59.2
2.388,0.0105,0.0,-0.0015,0.0045,59.2
2.389,0.012,0.0007,0.0045,0.0082,59.1
2.39,0.0142,0.006,0.0067,0.012,59.1
2.391,0.0135,0.009,0.0097,0.0105,59.0
2.392,0.0112,0.0082,0.0082,0.0075,59.0
2.393,0.0082,0.0015,0.0052,0.0007,59.0
2.394,0.0015,-0.0008,0.0022,-0.0015,58.9
2.395,-0.003,0.0,0.0015,-0.0023,58.9
2.396,-0.0046,0.0007,0.0022,-0.0038,58.9
2.397,-0.0053,-0.0008,-0.0008,-0.0038,58.8
2.398,-0.0053,-0.0015,0.0037,-0.0038,58.8
2.399,-0.0091,-0.003,0.0105,-0.0023,58.8
2.4,-0.012,-0.0038,0.0127,-0.003,58.7
2.401,-0.0105,-0.0046,0.0097,-0.003,58.6
2.402,-0.0098,-0.0038,0.0067,-0.0015,58.5
2.403,-0.0083,-0.0015,0.0052,-0.0023,58.4
2.404,-0.0053,-0.0023,0.003,-0.0015,58.3
2.405,-0.0046,-0.0015,0.003,0.0,58.1
2.406,-0.0008,-0.0015,0.0045,0.0015,58.0
2.407,0.0015,-0.0015,0.0045,0.0037,57.9
2.408,0.003,-0.0008,0.0007,0.006,57.8
2.409,0.003,-0.0023,0.0052,0.0082,57.7
2.41,0.0015,-0.003,0.0127,0.0075,57.6
2.411,-0.0015,-0.0015,0.0142,-0.0008,57.5
2.412,-0.0053,-0.0015,0.0225,-0.0075,57.3
2.413,-0.0091,-0.0046,0.0277,-0.0098,57.2
2.414,-0.0135,-0.0053,0.0315,-0.012,57.1
2.415,-0.0135,-0.0046,0.0405,-0.003,57.0
2.416,-0.0158,-0.0068,0.0442,0.0142,56.9
2.417,-0.0181,-0.0091,0.045,0.0255,56.8
2.418,-0.0165,-0.012,0.0427,0.027,56.7
2.419,-0.0158,-0.0105,0.0435,0.0217,56.6
2.42,-0.0128,-0.0091,0.0427,0.0202,56.4
2.421,-0.0135,-0.0098,0.0427,0.0127,56.2
2.422,-0.0135,-0.0091,0.0405,0.0105,56.1
2.423,-0.0143,-0.0083,0.0367,0.0105,55.9
2.424,-0.0105,-0.0053,0.024,0.0015,55.7
2.425,-0.0046,-0.0015,0.003,-0.0046,55.5
2.426,-0.0008,0.0015,-0.0053,-0.0068,55.3
2.427,0.0037,0.003,-0.0053,-0.0075,55.1
2.428,0.006,0.003,-0.0053,-0.0068,54.9
2.429,0.0037,0.0015,-0.0046,-0.003,54.8
2.43,-0.0008,0.0022,-0.003,0.0015,54.5
2.431,0.0,0.0007,-0.0015,0.0015,54.4
2.432,0.0,-0.0015,0.0015,0.003,54.2
2.433,-0.0008,-0.0015,0.003,0.0015,54.0
2.434,0.0022,-0.0008,0.0007,-0.0015,53.8
2.435,0.0052,-0.0015,-0.0015,-0.0015,53.6
2.436,0.0045,-0.003,-0.0038,-0.0015,53.5
2.437,0.0037,-0.003,-0.003,-0.0008,53.2
2.438,0.0045,-0.0015,-0.0038,-0.0015,53.1
2.439,0.003,0.0,-0.003,-0.0023,52.9
2.44,0.0007,0.0007,-0.0023,0.0015,52.6
2.441,0.0015,0.003,-0.0046,0.0015,52.5
2.442,0.0022,0.0015,-0.0015,0.003,52.2
2.443,0.0015,-0.0015,0.0007,0.0037,52.0
2.444,0.0015,0.0,0.0015,0.006,51.7
2.445,0.0015,0.0,0.0037,0.0052,51.5
2.446,0.0015,0.0007,0.0,0.003,51.3
2.447,0.003,0.0,-0.0008,0.003,51.0
2.448,0.0022,-0.0008,0.0,0.0015,50.8
2.449,0.0015,0.0007,0.0015,0.0022,50.5
2.45,-0.0008,0.0007,0.0015,0.0,50.3
2.451,0.0007,0.0015,-0.0068,-0.0008,50.0
2.452,0.003,0.0045,-0.0128,0.0007,49.8
2.453,0.0067,0.003,-0.0203,-0.0091,49.5
2.454,0.0105,0.0052,-0.0278,-0.0248,49.3
2.455,0.0105,0.009,-0.0293,-0.0353,49.0
2.456,0.009,0.009,-0.0308,-0.0368,48.8
2.457,0.0097,0.009,-0.03,-0.0308,48.6
2.458,0.0105,0.0067,-0.0278,-0.03,48.3
2.459,0.0097,0.0045,-0.024,-0.0128,48.1
2.46,0.009,0.0022,-0.0225,0.0292,47.8
2.461,0.0082,-0.0008,-0.0203,0.0307,47.5
2.462,0.0045,-0.0023,-0.015,0.0052,47.2
2.463,0.0015,-0.0038,-0.0091,0.0015,46.9
2.464,0.003,-0.0038,-0.0098,0.003,46.6
2.465,0.0015,-0.0008,-0.0046,-0.0008,46.3
2.466,0.0015,-0.0015,0.006,-0.0083,46.0
2.467,0.0022,-0.0023,0.0015,-0.003,45.7
2.468,0.003,-0.003,-0.0053,-0.003,45.4
2.469,0.009,0.0015,-0.0203,-0.0113,45.1
2.47,0.0105,0.0075,-0.0285,-0.0008,44.8
2.471,0.0105,0.0082,-0.0233,0.0082,44.5
2.472,0.0105,0.0052,-0.027,0.0075,44.2
2.473,0.0082,0.0037,-0.0285,0.003,43.9
2.474,0.006,0.0037,-0.0278,-0.0053,43.6
2.475,0.0067,0.0015,-0.0285,-0.0188,43.3
2.476,0.0045,0.0015,-0.0218,-0.024,43.0
2.477,0.0015,0.0037,-0.0181,-0.0165,42.7
2.478,-0.0015,0.0015,-0.0158,-0.0053,42.3
2.479,-0.0038,-0.0046,-0.0075,0.0037,42.1
2.48,-0.0015,-0.003,-0.0053,0.009,41.7
2.481,-0.0046,-0.0023,-0.003,0.009,41.4
2.482,-0.0038,-0.0008,0.0022,0.0082,41.1
2.483,-0.0038,-0.0008,0.0075,0.0067,40.8
2.484,-0.0038,-0.0068,0.0067,0.0007,40.5
2.485,0.0,-0.0075,0.0045,-0.0068,40.2
2.486,0.0015,-0.0053,0.0052,-0.0091,39.9
2.487,0.0,-0.0023,0.0045,-0.0083,39.6
2.488,0.0,0.0037,0.003,0.0,39.2
2.489,0.0015,0.0067,0.0052,0.0082,38.9
2.49,-0.0015,0.009,0.0052,0.0142,38.6
2.491,-0.0008,0.006,0.0052,0.018,38.2
2.492,0.0,0.003,0.0082,0.003,37.9
2.493,-0.0038,-0.003,0.0127,-0.0233,37.6
2.494,-0.0038,-0.006,0.0142,-0.0315,37.3
2.495,-0.0068,-0.0046,0.0165,-0.0165,37.0
2.496,-0.0075,-0.0046,0.0172,0.006,36.7
2.497,-0.0075,-0.003,0.0165,0.0285,36.4
2.498,-0.0091,-0.006,0.018,0.0367,36.0
2.499,-0.0068,-0.0075,0.0165,0.0277,35.7
2.5,-0.0068,-0.0046,0.0172,0.009,35.4
2.501,-0.0053,0.0015,0.0165,-0.0075,35.1
2.502,-0.003,0.006,0.0165,-0.0098,34.7
2.503,-0.0038,0.006,0.015,0.003,34.4
2.504,-0.0015,0.003,0.0105,0.0202,34.1
2.505,-0.003,-0.0015,0.0082,0.0277,33.7
2.506,-0.003,-0.003,0.0052,0.024,33.4
2.507,-0.0015,-0.006,0.003,0.0105,33.1
2.508,0.0022,-0.0068,-0.0008,0.0,32.8
2.509,0.0022,-0.003,0.003,-0.0053,32.4
2.51,0.0015,-0.0023,0.0045,-0.0083,32.1
2.511,0.0007,-0.0008,0.0015,-0.0091,31.8
2.512,0.0007,0.0007,-0.0008,-0.0098,31.5
2.513,0.0022,0.0015,-0.0046,-0.0083,31.1
2.514,0.0007,0.0007,-0.0046,-0.0068,30.8
2.515,0.0015,0.0,-0.0046,-0.0053,30.5
2.516,0.0007,-0.0023,-0.0015,-0.0053,30.1
2.517,-0.0008,-0.003,-0.003,-0.0105,29.8
2.518,0.0007,-0.0038,-0.006,-0.0105,29.5
2.519,-0.0008,-0.003,-0.0008,-0.0083,29.1
2.52,-0.003,-0.0008,-0.0008,-0.0083,28.8
2.521,-0.0015,0.0015,0.0,-0.0068,28.4
2.522,-0.0015,0.0022,0.0015,-0.0143,28.1
2.523,0.0007,0.0052,-0.003,-0.0285,27.8
2.524,0.0022,0.009,-0.0105,-0.0465,27.4
2.525,0.003,0.012,-0.0158,-0.0578,27.0
2.526,0.0015,0.0157,-0.0181,-0.0518,26.7
2.527,-0.0008,0.0157,-0.0195,-0.039,26.3
2.528,0.0015,0.0142,-0.0188,-0.012,26.0
2.529,0.0015,0.0135,-0.0195,0.018,25.6
2.53,0.0052,0.0105,-0.0181,0.0427,25.3
2.531,0.0045,0.0052,-0.0143,0.0615,24.9
2.532,0.0015,-0.006,-0.012,0.0562,24.6
2.533,0.0007,-0.0165,-0.003,0.0442,24.3
2.534,0.0007,-0.0158,0.0,0.0352,23.9
2.535,0.0052,-0.0181,0.003,0.018,23.5
2.536,0.0045,-0.0195,0.0015,-0.0046,23.2
2.537,0.0075,-0.0098,0.0015,-0.015,22.8
2.538,0.0052,-0.0046,0.009,-0.0113,22.5
2.539,0.0045,-0.0015,0.012,-0.0053,22.1
2.54,0.0067,-0.0008,0.012,-0.0015,21.7
2.541,0.003,-0.003,0.006,0.006,21.5
2.542,0.0015,-0.0053,0.0127,0.009,21.1
2.543,-0.0015,-0.0068,0.0165,0.0015,20.8
2.544,0.0007,-0.0023,-0.0046,-0.0038,20.4
2.545,0.0075,0.0052,-0.0218,-0.0053,20.1
2.546,0.006,0.006,-0.0188,-0.0083,19.8
2.547,0.0045,0.0045,-0.015,-0.012,19.4
2.548,0.0037,0.0052,-0.0128,-0.0158,19.1
2.549,0.0045,0.0022,-0.0015,-0.0098,18.8
2.55,0.003,0.0007,0.0,-0.0046,18.4
2.551,0.0067,0.0015,0.0015,-0.003,18.1
2.552,0.0045,-0.0015,0.0142,0.0,17.8
2.553,-0.0023,-0.0038,0.0217,-0.0008,17.5
2.554,-0.0023,-0.0015,0.0142,-0.0046,17.1
2.555,-0.0023,0.0015,0.0045,-0.0075,16.8
2.556,-0.003,0.0045,0.0015,-0.012,16.5
2.557,-0.0023,0.0045,-0.0038,-0.0158,16.1
2.558,-0.003,0.0045,-0.0128,-0.0195,15.8
2.559,-0.0015,0.0037,-0.0173,-0.0195,15.4
2.56,-0.0015,0.0015,-0.0195,-0.0105,15.1
2.561,-0.0008,-0.0015,-0.0293,0.0007,14.9
2.562,0.0007,-0.0015,-0.03,0.0075,14.7
2.563,0.0015,-0.0008,-0.0218,0.0165,14.4
2.564,0.003,-0.0008,-0.0143,0.0262,14.2
2.565,-0.0015,-0.003,0.0037,0.0285,14.0
2.566,-0.0008,-0.0083,0.0255,0.0315,13.8
2.567,0.0015,-0.0083,0.039,0.0277,13.5
2.568,-0.0015,-0.0068,0.0427,0.0187,13.3
2.569,-0.0015,-0.0053,0.0345,0.0127,13.1
2.57,-0.003,0.0,0.0247,0.012,12.9
2.571,-0.0046,0.0015,0.0157,0.009,12.6
2.572,-0.003,0.0015,0.0082,0.0052,12.4
2.573,0.0045,0.0052,0.0007,0.003,12.2
2.574,0.0082,0.0082,-0.0128,0.0007,12.0
2.575,0.003,0.0067,-0.0128,0.0015,11.7
2.576,-0.0046,0.0015,-0.0091,-0.0008,11.5
2.577,-0.0091,-0.0008,-0.012,-0.0008,11.3
2.578,-0.0128,-0.0023,-0.0083,0.0007,11.1
2.579,-0.0173,-0.0015,-0.012,-0.0008,10.8
2.58,-0.0158,0.0015,-0.015,-0.0015,10.6
2.581,-0.0105,0.003,-0.0128,-0.0008,10.5
2.582,-0.003,0.003,-0.0158,-0.0015,10.5
2.583,0.0045,0.0045,-0.0233,-0.0046,10.4
2.584,0.012,0.0052,-0.0368,-0.0075,10.3
2.585,0.0165,0.0015,-0.0346,-0.0068,10.3
2.586,0.0127,-0.003,-0.003,-0.0023,10.2
2.587,0.0022,-0.0038,0.027,0.0,10.1
2.588,0.003,-0.0008,0.027,-0.003,10.0
2.589,0.006,-0.0008,0.033,-0.0046,10.0
2.59,-0.0015,-0.0015,0.0367,-0.0083,9.9
2.591,-0.0015,-0.0046,0.0315,-0.0053,9.8
2.592,-0.0091,-0.0113,0.0405,0.003,9.8
2.593,-0.0128,-0.012,0.039,0.0097,9.7
2.594,-0.012,-0.0075,0.051,0.0165,9.6
2.595,-0.0113,-0.0068,0.0517,0.0202,9.5
2.596,-0.0046,-0.0068,0.039,0.021,9.4
2.597,-0.0038,-0.0068,0.0307,0.012,9.4
2.598,-0.003,-0.0068,0.0142,0.0007,9.3
2.599,-0.0046,-0.0083,0.012,-0.003,9.3
2.6,-0.0015,-0.0053,0.0082,-0.006,9.1
2.601,0.0105,-0.0015,-0.0015,-0.0053,9.1
2.602,0.0232,0.0022,-0.0083,-0.0015,9.1
2.603,0.0195,0.0052,-0.0181,0.003,9.1
2.604,0.006,0.0045,-0.024,0.0045,9.1
2.605,-0.0015,0.0052,-0.0256,-0.0015,9.1
2.606,-0.0105,0.0067,-0.0256,-0.0068,9.1
2.607,-0.0181,0.0052,-0.0256,-0.0083,9.0
2.608,-0.0195,0.0045,-0.0285,-0.0128,9.0
2.609,-0.0181,0.003,-0.021,-0.0143,9.0
2.61,-0.0165,0.0007,-0.0075,-0.015,9.0
2.611,-0.0098,0.0015,-0.0038,-0.0195,9.0
2.612,-0.0015,0.0075,-0.0105,-0.0218,9.0
2.613,0.0067,0.0105,-0.0143,-0.0128,9.0
2.614,0.009,0.0045,-0.0083,0.0037,8.9
2.615,0.0067,-0.003,-0.0008,0.0142,8.9
2.616,0.0127,-0.0091,0.0315,0.024,8.9
2.617,0.0157,-0.0158,0.0517,0.027,8.9
2.618,0.0135,-0.0135,0.0457,0.0217,8.9
2.619,0.0037,-0.0128,0.0442,0.009,8.8
2.62,0.0007,-0.0135,0.0352,-0.0046,8.8
2.621,0.0015,-0.0105,0.0352,-0.0053,8.8
2.622,-0.003,-0.0083,0.0292,-0.0053,8.8
2.623,-0.003,-0.0046,0.0202,-0.0083,8.7
2.624,0.0,-0.0015,0.0135,-0.0091,8.7
2.625,0.0052,0.0007,0.0007,-0.0128,8.6
2.626,0.0037,0.0015,0.0015,-0.0165,8.6
2.627,0.0,0.0007,-0.0015,-0.021,8.6
2.628,-0.0091,-0.0046,-0.0023,-0.0218,8.5
2.629,-0.0218,-0.0053,0.0045,-0.0135,8.5
2.63,-0.0233,0.0007,-0.0008,-0.0068,8.5
2.631,-0.0158,0.0015,-0.0113,-0.0068,8.5
2.632,-0.0105,0.0022,-0.0173,-0.0038,8.5
2.633,-0.0091,0.0045,-0.0225,-0.0023,8.4
2.634,-0.006,0.0067,-0.0218,-0.012,8.4
2.635,-0.0105,0.0105,-0.012,-0.0181,8.3
2.636,-0.0165,0.0112,-0.0046,-0.0135,8.3
2.637,-0.0173,0.0097,0.0067,-0.006,8.3
2.638,-0.0091,0.009,0.0067,-0.003,8.2
2.639,-0.0008,0.0052,0.0067,0.0097,8.2
2.64,-0.006,-0.0015,0.0082,0.0307,8.1
2.641,-0.0023,-0.0053,-0.0195,0.0247,8.2
2.642,0.0082,-0.0091,-0.0278,0.012,8.2
2.643,0.0067,-0.0128,-0.024,0.0022,8.3
2.644,0.009,-0.0091,-0.0263,-0.012,8.4
2.645,0.009,-0.0053,-0.0128,-0.0128,8.4
2.646,0.0112,-0.0008,-0.0053,-0.006,8.5
2.647,0.0172,0.0007,-0.003,0.0045,8.5
2.648,0.0142,-0.003,0.0037,0.0172,8.6
2.649,0.012,-0.0091,0.009,0.0232,8.6
2.65,0.0142,-0.0143,0.0127,0.0232,8.7
2.651,0.0172,-0.0143,0.009,0.0157,8.7
2.652,0.0172,-0.0091,0.009,0.0082,8.8
2.653,0.0195,-0.0023,0.0105,0.0052,8.9
2.654,0.0232,0.0052,0.0015,0.0052,8.9
2.655,0.0277,0.0097,0.0022,0.006,9.0
2.656,0.0337,0.0142,0.0045,0.0067,9.0
2.657,0.039,0.018,0.003,-0.0008,9.0
2.658,0.0382,0.0217,0.0015,-0.0091,9.1
2.659,0.0322,0.024,-0.0098,-0.0105,9.2
2.66,0.0352,0.0195,-0.0173,-0.0143,9.2
2.661,0.0337,0.0052,-0.012,-0.0203,9.4
2.662,0.0127,-0.0098,0.0015,-0.0233,9.4
2.663,-0.012,-0.0143,0.0067,-0.0293,9.6
2.664,-0.0315,-0.0128,0.0022,-0.0315,9.7
2.665,-0.0458,-0.0128,0.0,-0.027,9.9
2.666,-0.0503,-0.0135,-0.0053,-0.0225,9.9
2.667,-0.0428,-0.0113,-0.0195,-0.003,10.1
2.668,-0.0256,-0.0083,-0.0346,0.0217,10.2
2.669,-0.0158,-0.0068,-0.0353,0.0142,10.3
2.67,-0.006,-0.003,-0.0165,-0.003,10.4
2.671,0.0015,0.0097,-0.0083,-0.0015,10.6
2.672,0.003,0.0285,-0.0075,0.0082,10.7
2.673,0.0082,0.0352,-0.0023,0.0232,10.8
2.674,0.0067,0.0217,-0.003,0.0217,10.9
2.675,-0.003,0.0075,-0.0015,0.012,11.1
2.676,-0.0346,0.003,0.0,0.003,11.2
2.677,-0.063,-0.0038,0.0015,-0.0113,11.3
2.678,-0.0721,-0.0053,-0.003,-0.015,11.4
2.679,-0.0645,-0.0075,-0.0008,-0.0128,11.5
2.68,-0.042,-0.0098,0.0127,0.003,11.7
2.681,-0.0165,-0.0023,0.0157,0.0195,11.7
2.682,0.0165,0.0007,0.0232,0.0187,11.8
2.683,0.0352,-0.0023,0.024,0.0157,11.8
2.684,0.048,-0.0038,0.024,0.0052,11.9
2.685,0.066,-0.0023,0.0202,0.0067,12.0
2.686,0.075,0.0045,0.006,0.0112,12.0
2.687,0.0855,0.0082,-0.0113,0.0037,12.1
2.688,0.0885,0.0052,-0.0308,-0.0023,12.1
2.689,0.0742,-0.0023,-0.0375,-0.0075,12.2
2.69,0.0345,-0.0128,-0.042,-0.012,12.2
2.691,-0.0091,-0.0158,-0.054,-0.0128,12.3
2.692,-0.039,-0.012,-0.063,-0.0113,12.4
2.693,-0.057,-0.0068,-0.0458,-0.012,12.4
2.694,-0.048,0.0007,-0.0256,-0.0128,12.5
2.695,-0.0413,0.0045,-0.0218,-0.0113,12.6
2.696,-0.0413,0.0052,-0.0098,-0.0091,12.6
2.697,-0.0413,0.0082,-0.0008,-0.0075,12.6
2.698,-0.0465,0.0112,0.0052,-0.0038,12.7
2.699,-0.0293,0.0165,0.0112,-0.0023,12.8
2.7,-0.0083,0.0172,0.0157,-0.0015,12.8
2.701,0.0127,0.0142,0.021,-0.0038,12.8
2.702,0.0405,0.0045,0.015,-0.012,12.8
2.703,0.0457,-0.006,0.012,-0.0165,12.8
2.704,0.0487,-0.0091,0.012,-0.0158,12.8
2.705,0.0465,-0.0068,0.0082,-0.0143,12.8
2.706,0.021,-0.0038,-0.003,-0.0135,12.8
2.707,0.0172,-0.003,-0.024,-0.012,12.8
2.708,0.027,-0.0046,-0.0368,-0.0083,12.8
2.709,0.0345,-0.0105,-0.0353,-0.0075,12.8
2.71,0.0352,-0.0091,-0.0346,-0.0053,12.8
2.711,0.0307,-0.0008,-0.0256,-0.0008,12.8
2.712,0.033,0.0015,-0.0165,0.0007,12.8
2.713,0.0367,0.0037,-0.0128,0.0007,12.8
2.714,0.0405,-0.0015,-0.0015,-0.0015,12.8
2.715,0.0232,-0.0083,0.0112,0.0045,12.8
2.716,-0.0068,-0.0091,0.027,0.0105,12.8
2.717,-0.0353,-0.0091,0.0292,0.0097,12.8
2.718,-0.0593,-0.0038,0.0315,0.0082,12.8
2.719,-0.0721,-0.0023,0.0337,0.0015,12.8
2.72,-0.0668,-0.0038,0.0285,-0.003,12.8
2.721,-0.0503,-0.0053,0.0352,0.0022,12.9
2.722,-0.0511,-0.0053,0.0397,0.009,12.9
2.723,-0.0405,-0.0015,0.039,0.0172,13.0
2.724,-0.0315,-0.0015,0.0352,0.027,13.0
2.725,-0.039,-0.0053,0.0315,0.03,13.1
2.726,-0.0361,-0.0053,0.0277,0.027,13.2
2.727,-0.0225,-0.003,0.0255,0.021,13.3
2.728,0.0015,-0.0023,0.0285,0.0165,13.4
2.729,0.009,-0.0015,0.0232,0.0157,13.4
2.73,0.003,0.0015,0.0157,0.015,13.5
2.731,-0.0008,0.003,0.012,0.012,13.6
2.732,-0.0098,0.0022,0.0172,0.0082,13.6
2.733,-0.0293,-0.003,0.024,0.0022,13.7
2.734,-0.0511,-0.0105,0.0135,-0.0023,13.8
2.735,-0.0578,-0.0068,0.0015,-0.0008,13.9
2.736,-0.0533,-0.0008,-0.0046,0.0,13.9
2.737,-0.0458,0.0022,-0.012,-0.0008,14.0
2.738,-0.0203,0.0052,-0.0165,0.0007,14.1
2.739,0.009,0.0052,-0.0173,0.0007,14.1
2.74,0.0337,0.0097,-0.0015,0.0007,14.2
2.741,0.0592,0.0082,0.0082,-0.0023,14.2
2.742,0.0825,0.0067,0.0045,-0.0053,14.3
2.743,0.09,0.0067,0.0157,-0.0038,14.3
2.744,0.0787,0.003,0.0322,-0.0046,14.3
2.745,0.069,0.0,0.0352,-0.0046,14.3
2.746,0.048,-0.0008,0.0142,-0.0015,14.3
2.747,0.027,-0.0023,-0.0023,-0.0015,14.4
2.748,0.003,-0.0053,-0.0105,-0.0015,14.4
2.749,-0.0165,-0.0053,-0.0068,0.003,14.4
2.75,-0.0188,-0.003,-0.0068,0.0045,14.4
2.751,-0.0128,0.0007,-0.0293,0.0045,14.4
2.752,-0.0135,0.003,-0.0458,0.0007,14.4
2.753,-0.0098,0.0045,-0.0503,-0.003,14.4
2.754,0.0105,0.012,-0.0405,-0.0008,14.5
2.755,0.0045,0.0157,-0.0256,-0.0038,14.5
2.756,-0.0233,0.0112,-0.0218,-0.0053,14.5
2.757,-0.0293,0.009,-0.0383,-0.0075,14.5
2.758,-0.0128,0.006,-0.0353,-0.0068,14.5
2.759,0.0015,0.0007,-0.0128,-0.0053,14.6
2.76,0.0277,0.0045,-0.012,-0.0046,14.6
2.761,0.048,0.0067,-0.012,-0.0015,14.6
2.762,0.0495,-0.0068,-0.0105,-0.006,14.6
2.763,0.0472,-0.0181,-0.0128,-0.0105,14.6
2.764,0.0292,-0.0128,-0.0053,-0.0075,14.6
2.765,0.0127,-0.003,-0.0015,-0.0053,14.6
2.766,0.003,-0.0008,-0.0083,-0.0053,14.5
2.767,-0.0053,-0.0046,-0.0195,-0.0098,14.5
2.768,-0.0143,-0.0075,-0.0248,-0.012,14.5
2.769,-0.0293,-0.0053,-0.024,-0.0091,14.5
2.77,-0.0346,-0.0046,-0.0165,-0.0053,14.5
2.771,-0.0323,-0.003,-0.0068,-0.0015,14.5
2.772,-0.0338,-0.0023,-0.0098,-0.0038,14.5
2.773,-0.03,-0.0015,-0.015,-0.003,14.5
2.774,-0.0278,-0.0008,-0.0225,-0.0015,14.5
2.775,-0.0293,0.0045,-0.024,0.0015,14.4
2.776,-0.033,0.009,-0.0218,0.0067,14.4
2.777,-0.033,0.0127,-0.0248,0.0082,14.4
2.778,-0.0225,0.015,-0.0195,0.009,14.4
2.779,-0.0195,0.0112,-0.0083,0.0067,14.4
2.78,-0.0143,0.0015,0.0067,0.0037,14.4
2.781,-0.0128,-0.0046,0.0202,0.0022,14.4
2.782,-0.012,-0.0038,0.0315,0.0037,14.4
2.783,0.0015,-0.0008,0.0345,0.006,14.4
2.784,0.0202,-0.0015,0.0352,0.0052,14.4
2.785,0.0382,-0.0068,0.0405,0.0075,14.4
2.786,0.054,-0.0091,0.042,0.0067,14.4
2.787,0.069,-0.0046,0.048,0.0067,14.4
2.788,0.0652,-0.0068,0.0577,0.0075,14.4
2.789,0.0637,-0.0105,0.0547,0.0007,14.4
2.79,0.0615,-0.0113,0.048,-0.0008,14.4
2.791,0.0277,-0.0113,0.0532,0.0015,14.4
2.792,-0.0128,-0.0068,0.0532,0.0045,14.4
2.793,-0.0256,-0.0053,0.0427,0.0052,14.4
2.794,-0.0293,-0.0046,0.0337,0.0045,14.4
2.795,-0.0338,-0.0046,0.0307,0.0045,14.4
2.796,-0.0315,-0.0038,0.0255,0.0045,14.4
2.797,-0.0315,-0.0008,0.0172,0.0045,14.4
2.798,-0.03,-0.0015,0.012,0.003,14.4
2.799,-0.0263,0.0015,0.015,0.0022,14.4
2.8,-0.0195,0.0022,0.0165,0.003,14.4
2.801,-0.012,0.003,0.0142,0.0015,14.4
2.802,-0.0091,0.003,0.0195,0.0007,14.4
2.803,-0.0068,0.0007,0.0165,0.0015,14.4
2.804,-0.0143,-0.0015,0.006,0.0015,14.3
2.805,-0.0225,-0.0015,-0.003,-0.0008,14.2
2.806,-0.0203,0.0015,-0.0128,-0.0023,14.2
2.807,-0.0068,0.0037,-0.0256,-0.003,14.1
2.808,0.0037,0.0052,-0.0263,-0.0015,14.1
2.809,0.0097,0.003,-0.0195,0.0,14.0
2.81,0.0105,0.0007,-0.0195,0.0,13.9
2.811,0.0067,-0.0008,-0.0218,0.0007,13.9
2.812,0.0105,-0.0015,-0.0225,0.0,13.9
2.813,0.0135,0.0007,-0.0233,-0.0015,13.8
2.814,0.0165,0.0015,-0.0233,-0.0023,13.8
2.815,0.027,0.0015,-0.0315,-0.0046,13.7
2.816,0.0375,0.003,-0.0443,-0.0068,13.7
2.817,0.0315,0.0052,-0.0525,-0.006,13.6
2.818,0.0142,0.0052,-0.0368,-0.0023,13.5
2.819,0.0052,0.0007,-0.0188,-0.0008,13.5
2.82,0.0015,0.0007,-0.0128,-0.0008,13.4
2.821,-0.0046,-0.0015,-0.0038,0.0007,13.4
2.822,-0.0068,-0.003,-0.0008,0.0007,13.4
2.823,-0.0113,-0.0038,-0.0008,0.0,13.4
2.824,-0.0091,-0.003,0.0037,0.0007,13.4
2.825,0.0015,0.0,0.0195,0.0015,13.4
2.826,0.0067,0.0007,0.0292,-0.0008,13.4
2.827,0.0082,0.0015,0.0255,-0.0023,13.4
2.828,0.0067,-0.0008,0.0195,-0.0015,13.4
2.829,0.0082,-0.0015,0.0105,-0.003,13.4
2.83,0.0075,-0.0008,0.009,-0.0015,13.4
2.831,0.0015,0.0,0.0142,-0.0008,13.4
2.832,-0.0053,-0.0015,0.0142,-0.0038,13.4
2.833,-0.0158,-0.0068,0.0135,-0.0046,13.4
2.834,-0.0195,-0.003,0.0112,-0.0053,13.4
2.835,-0.0233,-0.003,0.0135,-0.0053,13.4
2.836,-0.0225,-0.003,0.018,-0.0046,13.4
2.837,-0.0181,-0.0008,0.0217,-0.0046,13.3
2.838,-0.0195,-0.003,0.018,-0.003,13.3
2.839,-0.0173,-0.003,0.0037,-0.0023,13.3
2.84,-0.0046,-0.0015,-0.0046,-0.0008,13.3
2.841,0.015,0.0007,-0.0098,-0.0015,13.3
2.842,0.0262,0.0037,-0.0105,-0.0023,13.3
2.843,0.033,0.003,-0.0105,-0.0046,13.3
2.844,0.0397,0.0052,-0.0068,-0.0046,13.3
2.845,0.0352,0.003,0.0015,-0.006,13.4
2.846,0.0195,-0.0068,0.0045,-0.0113,13.4
2.847,-0.0008,-0.0105,0.003,-0.0091,13.4
2.848,-0.0083,-0.0068,0.0045,-0.0091,13.4
2.849,-0.0105,-0.0068,0.012,-0.0098,13.4
2.85,-0.0135,-0.0053,0.0075,-0.0091,13.5
2.851,-0.0158,-0.003,0.0037,-0.0083,13.5
2.852,-0.0165,-0.0046,0.003,-0.0068,13.5
2.853,-0.015,0.0007,-0.0046,-0.0075,13.5
2.854,-0.0105,0.003,-0.0083,-0.0053,13.5
2.855,0.0015,0.0052,-0.012,-0.0053,13.5
2.856,0.0127,0.009,-0.0165,-0.0068,13.5
2.857,0.0157,0.0082,-0.0181,-0.0083,13.5
2.858,0.009,0.0045,-0.027,-0.012,13.5
2.859,0.0037,0.0037,-0.0308,-0.012,13.6
2.86,0.0,0.0067,-0.0315,-0.0098,13.6
2.861,-0.0015,0.0112,-0.0278,-0.0091,13.6
2.862,-0.0015,0.009,-0.024,-0.0105,13.6
2.863,-0.0135,0.0082,-0.033,-0.0105,13.6
2.864,-0.0128,0.006,-0.0383,-0.0083,13.6
2.865,-0.0038,0.0045,-0.033,-0.0083,13.6
2.866,0.003,0.003,-0.0263,-0.0068,13.6
2.867,0.0082,0.0007,-0.0218,-0.003,13.6
2.868,0.0127,-0.0008,-0.0218,-0.0008,13.6
2.869,0.0157,0.003,-0.0248,0.0,13.6
2.87,0.0195,0.006,-0.024,0.0,13.6
2.871,0.0202,0.0045,-0.0195,0.0007,13.6
2.872,0.009,-0.0023,-0.0165,0.0,13.6
2.873,0.0045,-0.003,-0.0113,0.0007,13.6
2.874,0.0045,-0.0008,-0.012,0.003,13.6
2.875,0.0045,-0.0008,-0.0113,0.0045,13.7
2.876,0.0015,-0.0023,-0.0105,0.0045,13.7
2.877,-0.0046,-0.003,-0.0188,0.0015,13.7
2.878,-0.006,-0.003,-0.0195,0.0015,13.7
2.879,-0.0083,-0.0046,-0.0158,0.0052,13.7
2.88,-0.006,-0.003,-0.012,0.0052,13.7
2.881,-0.003,-0.0015,-0.0158,0.0045,13.7
2.882,-0.0008,0.0007,-0.021,0.0052,13.6
2.883,0.0052,0.0015,-0.024,0.0037,13.6
2.884,0.0135,0.0045,-0.0346,0.0015,13.6
2.885,0.0202,0.0112,-0.0405,0.003,13.5
2.886,0.024,0.0157,-0.042,0.0045,13.5
2.887,0.0255,0.0202,-0.0458,0.003,13.5
2.888,0.024,0.018,-0.0518,0.0007,13.4
2.889,0.0232,0.015,-0.0578,-0.003,13.4
2.89,0.0232,0.0127,-0.0653,-0.0053,13.3
2.891,0.024,0.0082,-0.0615,-0.0053,13.3
2.892,0.0157,0.0052,-0.048,-0.003,13.3
2.893,0.0045,0.003,-0.0428,-0.0046,13.2
2.894,0.0052,0.0015,-0.0368,-0.0038,13.2
2.895,0.0105,0.0015,-0.033,-0.0015,13.1
2.896,0.0112,0.003,-0.0278,-0.0023,13.1
2.897,0.012,0.0052,-0.0218,-0.0015,13.1
2.898,0.0127,0.0045,-0.0158,-0.0008,13.0
2.899,0.0157,0.0015,-0.0075,-0.0008,13.0
2.9,0.0165,-0.0008,-0.0046,-0.0008,12.9
2.901,0.009,-0.0023,-0.0015,0.0015,12.9
2.902,-0.0008,-0.003,0.0015,0.0,12.9
2.903,-0.0046,-0.0023,0.0045,0.0015,12.8
2.904,-0.0075,-0.0008,0.0075,0.0052,12.7
2.905,-0.0083,-0.0015,0.0097,0.0067,12.7
2.906,-0.0105,-0.0008,0.0082,0.0082,12.6
2.907,-0.0135,-0.0015,0.009,0.009,12.6
2.908,-0.0203,-0.0046,0.0157,0.0082,12.5
2.909,-0.0308,-0.0068,0.0232,0.009,12.5
2.91,-0.042,-0.0075,0.0307,0.009,12.4
2.911,-0.0428,-0.0083,0.036,0.0127,12.4
2.912,-0.0383,-0.0091,0.0382,0.0127,12.3
2.913,-0.033,-0.0113,0.039,0.012,12.2
2.914,-0.0256,-0.0128,0.039,0.0127,12.2
2.915,-0.0165,-0.0075,0.042,0.0127,12.1
2.916,-0.0068,-0.0046,0.0442,0.0127,12.1
2.917,0.003,-0.0023,0.0457,0.0097,12.1
2.918,0.0097,-0.003,0.054,0.0105,12.0
2.919,0.0142,-0.0075,0.0585,0.009,11.9
2.92,0.0202,-0.0083,0.0652,0.0052,11.8
2.921,0.0195,-0.0083,0.0652,0.0052,11.8
2.922,0.0142,-0.0083,0.0532,0.003,11.8
2.923,0.0052,-0.0083,0.0457,0.0015,11.7
2.924,-0.0023,-0.0098,0.0427,0.0,11.7
2.925,-0.0053,-0.0128,0.0457,-0.0008,11.6
2.926,-0.015,-0.0143,0.039,0.0007,11.6
2.927,-0.0165,-0.0113,0.0307,0.0007,11.5
2.928,-0.0158,-0.0068,0.0225,0.0007,11.5
2.929,-0.015,-0.0046,0.0127,0.0007,11.4
2.93,-0.0105,-0.003,0.0075,0.0007,11.4
2.931,-0.0105,-0.0023,0.0022,0.0015,11.3
2.932,-0.0098,-0.003,0.0045,0.0015,11.3
2.933,-0.0091,-0.0008,0.0015,-0.0008,11.2
2.934,-0.0068,0.0022,-0.003,-0.0038,11.2
2.935,-0.0046,0.0022,-0.003,-0.0046,11.1
2.936,0.0,0.0045,-0.006,-0.003,11.1
2.937,0.0022,0.003,-0.0053,-0.0015,11.0
2.938,0.0,-0.0008,-0.0015,-0.0008,11.0
2.939,-0.0015,-0.0023,-0.0015,-0.003,10.9
2.94,-0.0008,-0.0015,-0.0015,-0.0023,10.8
2.941,-0.0015,0.0015,-0.0023,-0.0015,10.8
2.942,-0.0015,0.0007,-0.0008,-0.003,10.8
2.943,0.0007,0.0022,-0.0008,-0.0008,10.7
2.944,-0.0015,0.0015,0.0022,0.0,10.7
2.945,-0.0008,0.0007,0.0045,-0.0008,10.7
2.946,0.0007,0.003,0.0045,-0.0008,10.6
2.947,0.0,0.0007,0.009,0.0007,10.6
2.948,-0.0008,-0.0008,0.0142,0.0007,10.5
2.949,-0.0015,-0.0015,0.0157,0.0,10.5
2.95,0.0015,-0.0046,0.015,0.0007,10.4
2.951,0.0022,-0.003,0.0075,0.0007,10.4
2.952,0.0022,-0.003,0.0052,-0.0015,10.3
2.953,0.0007,-0.0008,0.0067,-0.0015,10.3
2.954,-0.0015,-0.0015,0.0052,0.0007,10.3
2.955,-0.003,0.0,0.0037,-0.0008,10.2
2.956,-0.0038,0.0007,0.0045,-0.0008,10.2
2.957,0.0007,0.0007,0.003,-0.0015,10.1
2.958,0.003,0.0007,0.003,-0.003,10.1
2.959,0.0015,-0.003,0.006,0.0007,10.0
2.96,0.0015,-0.0008,0.003,-0.0008,9.9
2.961,0.0,0.0,0.006,0.0,9.9
2.962,0.0015,-0.0015,0.0105,0.0007,9.9
2.963,0.0,-0.0008,0.0127,-0.0008,9.9
2.964,-0.0023,-0.0023,0.0142,0.0007,9.8
2.965,-0.003,-0.0015,0.0127,0.0,9.8
2.966,-0.0038,-0.0008,0.012,0.003,9.7
2.967,-0.0008,0.0015,0.0075,0.0022,9.7
2.968,-0.0008,0.0015,0.0067,-0.0008,9.6
2.969,-0.0008,-0.0008,0.0075,-0.0015,9.6
2.97,-0.0008,-0.0015,0.009,-0.0015,9.5
2.971,-0.0015,-0.0008,0.0127,-0.0015,9.5
2.972,-0.0023,-0.0015,0.0135,-0.0068,9.4
2.973,-0.0015,-0.0046,0.015,-0.0068,9.4
2.974,-0.0008,-0.003,0.0202,-0.003,9.4
2.975,-0.0053,-0.003,0.0315,-0.0023,9.3
2.976,-0.0083,-0.006,0.039,-0.0023,9.3
2.977,-0.0105,-0.0068,0.045,0.003,9.2
2.978,-0.0128,-0.0068,0.0547,0.0105,9.2
2.979,-0.0143,-0.0075,0.0585,0.0067,9.1
2.98,-0.0143,-0.0083,0.0577,-0.0023,9.0
2.981,-0.0143,-0.0083,0.057,-0.0091,9.0
2.982,-0.0158,-0.0075,0.0547,-0.0053,9.0
2.983,-0.012,-0.0075,0.0517,0.0007,9.0
2.984,-0.0091,-0.0083,0.042,0.0067,9.0
2.985,-0.0053,-0.0091,0.0367,0.024,8.9
2.986,-0.0023,-0.0083,0.0315,0.03,8.9
2.987,-0.0008,-0.0068,0.0255,0.0232,8.9
2.988,-0.003,-0.0068,0.0202,0.0157,8.8
2.989,-0.0015,-0.0038,0.012,0.0082,8.8
2.99,0.003,-0.0008,0.0105,0.003,8.7
2.991,-0.0008,-0.0008,0.0112,-0.0015,8.7
2.992,-0.0008,-0.0008,0.015,-0.0023,8.7
2.993,-0.0023,-0.0015,0.018,-0.003,8.6
2.994,-0.0015,-0.003,0.015,-0.0046,8.6
2.995,0.0,-0.0023,0.0037,-0.0053,8.6
2.996,0.0015,0.0,-0.0068,-0.006,8.5
2.997,0.003,-0.0008,-0.0068,-0.0046,8.5
2.998,0.003,0.0007,-0.0113,-0.006,8.5
2.999,0.0045,0.0007,-0.012,-0.0053,8.5
3.0,0.003,0.0015,-0.0188,-0.0083,8.4
3.001,0.006,0.0045,-0.024,-0.0083,8.4
3.002,0.0067,0.0045,-0.0256,-0.0075,8.4
3.003,0.009,0.0052,-0.03,-0.0075,8.3
3.004,0.0082,0.0037,-0.0263,-0.006,8.3
3.005,0.0067,0.003,-0.027,-0.0075,8.2
3.006,0.0082,0.0082,-0.0285,-0.0083,8.2
3.007,0.009,0.0067,-0.0315,-0.0075,8.2
3.008,0.0105,0.0082,-0.0353,-0.0083,8.1
3.009,0.0105,0.0067,-0.0315,-0.0046,8.1
3.01,0.0105,0.006,-0.0308,-0.0046,8.1
3.011,0.0075,0.0067,-0.0315,-0.006,8.1
3.012,0.0097,0.0052,-0.033,-0.006,8.0
3.013,0.0082,0.0045,-0.0315,-0.0068,8.0
3.014,0.0052,0.0037,-0.0285,-0.0068,8.0
3.015,0.0075,0.0045,-0.0256,-0.0053,7.9
3.016,0.0052,0.0022,-0.0233,-0.003,7.9
3.017,0.0067,0.003,-0.027,-0.003,7.8
3.018,0.0105,0.0045,-0.0278,-0.0046,7.8
3.019,0.0097,0.003,-0.0293,-0.006,7.8
3.02,0.0082,0.0045,-0.033,-0.006,7.7
3.021,0.0075,0.0045,-0.0346,-0.0053,7.7
3.022,0.009,0.0052,-0.039,-0.0053,7.7
3.023,0.0105,0.0067,-0.045,-0.0075,7.7
3.024,0.0142,0.0067,-0.0495,-0.0083,7.6
3.025,0.0142,0.0067,-0.0465,-0.0068,7.6
3.026,0.0127,0.009,-0.0458,-0.0068,7.6
3.027,0.0112,0.006,-0.021,-0.0015,7.6
3.028,-0.0008,-0.0008,0.0,0.0007,7.6
3.029,0.0015,0.0015,-0.024,-0.0046,7.6
3.03,0.0082,0.0015,-0.0195,-0.0015,7.6
3.031,0.003,-0.0008,-0.0046,0.0007,7.6
3.032,0.0015,-0.0008,-0.0068,0.0,7.5
3.033,-0.0015,-0.0023,-0.0075,0.0,7.5
3.034,-0.0008,0.0007,-0.0135,-0.0008,7.5
3.035,-0.0015,-0.0008,-0.0105,-0.0008,7.5
3.036,0.0007,0.0007,-0.012,-0.0015,7.5
3.037,0.003,0.003,-0.0113,-0.003,7.4
3.038,0.0007,0.0015,-0.0128,-0.0015,7.4
3.039,0.0007,0.0007,-0.0158,-0.0038,7.4
3.04,0.003,0.0007,-0.0173,-0.0038,7.3
