Time_s,RF,BF,VM,ST,FX
0.0,-0.0023,-0.003,-0.0105,-0.0023,56.5
0.001,-0.0015,-0.003,-0.0068,-0.0015,56.4
0.002,0.0015,-0.003,-0.0075,-0.0008,56.4
0.003,0.0007,-0.0015,-0.0068,-0.0015,56.3
0.004,0.0015,0.0,-0.0068,-0.0023,56.2
0.005,0.0015,0.0,-0.006,-0.003,56.2
0.006,-0.0015,-0.0008,-0.0046,-0.003,56.1
0.007,-0.0015,-0.0008,-0.0038,-0.0015,56.0
0.008,-0.0015,-0.0008,-0.0008,-0.0015,55.9
0.009,-0.0046,-0.003,0.0022,0.0007,55.8
0.01,-0.003,-0.003,0.0037,0.003,55.8
0.011,-0.0046,-0.0023,0.0052,0.0037,55.7
0.012,-0.0046,-0.0015,0.009,0.006,55.6
0.013,-0.0068,-0.0008,0.0142,0.0067,55.6
0.014,-0.0075,-0.0015,0.018,0.0082,55.5
0.015,-0.0068,-0.003,0.0202,0.0075,55.4
0.016,-0.0068,-0.0046,0.021,0.0082,55.3
0.017,-0.0046,-0.003,0.024,0.0097,55.3
0.018,-0.0046,-0.0038,0.024,0.0105,55.2
0.019,-0.0038,-0.0023,0.0217,0.0082,55.1
0.02,-0.0015,0.0015,0.0195,0.0067,55.0
0.021,-0.003,-0.0008,0.0127,0.0045,54.9
0.022,-0.003,-0.0008,0.0127,0.0022,54.8
0.023,-0.0023,-0.0015,0.0142,0.003,54.6
0.024,-0.003,-0.0008,0.0135,0.0045,54.4
0.025,-0.0008,0.0007,0.0142,0.0052,54.3
0.026,0.0015,0.0,0.0105,0.0045,54.2
0.027,0.0015,0.0015,-0.0046,0.0007,54.0
0.028,0.009,0.0045,-0.0293,-0.0053,53.9
0.029,0.0165,0.009,-0.0405,-0.0068,53.8
0.03,0.0157,0.009,-0.0428,-0.0068,53.6
0.031,0.0157,0.009,-0.042,-0.006,53.5
0.032,0.0127,0.0052,-0.0368,-0.0046,53.3
0.033,0.0112,0.003,-0.0353,-0.0046,53.2
0.034,0.0097,0.0045,-0.027,-0.003,53.1
0.035,0.0067,0.0037,-0.0165,-0.0008,52.9
0.036,0.0045,0.0007,-0.0105,-0.0008,52.8
0.037,0.0007,-0.0015,-0.0053,0.0007,52.6
0.038,-0.0038,-0.0015,0.0007,0.0022,52.5
0.039,-0.0098,-0.0053,0.0112,0.0045,52.3
0.04,-0.0158,-0.006,0.021,0.006,52.2
0.041,-0.0158,-0.0083,0.0322,0.0075,52.0
0.042,-0.0165,-0.0083,0.0397,0.0105,51.8
0.043,-0.0158,-0.006,0.0457,0.0142,51.7
0.044,-0.0143,-0.0068,0.0502,0.0127,51.5
0.045,-0.015,-0.0068,0.0502,0.012,51.3
0.046,-0.0143,-0.0083,0.0495,0.0105,51.2
0.047,-0.0143,-0.0083,0.0442,0.006,51.0
0.048,-0.0135,-0.0068,0.0397,0.0067,50.8
0.049,-0.0158,-0.0083,0.036,0.0045,50.6
0.05,-0.0135,-0.0046,0.0255,0.0007,50.4
0.051,-0.0083,-0.0046,0.012,-0.0015,50.3
0.052,-0.0075,-0.0053,0.0052,-0.0046,50.1
0.053,-0.0046,-0.0023,0.0015,-0.0038,49.9
0.054,-0.003,-0.0023,0.0015,-0.0046,49.7
0.055,0.0007,-0.0008,0.0015,-0.003,49.5
0.056,0.0022,0.0,0.0007,0.0015,49.4
0.057,0.0052,-0.0008,0.0067,0.006,49.2
0.058,0.0067,0.0015,0.0195,0.0165,49.0
0.059,0.0037,0.0037,0.0307,0.0322,48.9
0.06,0.0052,0.0067,0.0307,0.0465,48.6
0.061,0.0052,0.009,0.0262,0.0322,48.5
0.062,0.0045,0.0052,0.0262,-0.0053,48.2
0.063,-0.0008,0.0007,0.0277,-0.0195,48.0
0.064,-0.0046,-0.0015,0.018,-0.0315,47.8
0.065,-0.0008,-0.0015,0.0067,-0.0503,47.5
0.066,0.0,-0.0008,-0.0015,-0.0525,47.3
0.067,0.0015,0.0,-0.0128,-0.054,47.1
0.068,0.0007,-0.0046,-0.021,-0.0615,46.8
0.069,0.0007,-0.006,-0.0338,-0.0721,46.6
0.07,0.0045,-0.0046,-0.0361,-0.0728,46.4
0.071,0.003,-0.0053,-0.033,-0.0623,46.2
0.072,0.003,-0.0023,-0.0346,-0.0465,45.9
0.073,0.0052,-0.0023,-0.0315,-0.03,45.7
0.074,0.006,-0.0023,-0.0278,-0.0225,45.5
0.075,0.0067,0.0,-0.024,-0.0173,45.2
0.076,0.0082,0.0015,-0.021,-0.0098,45.0
0.077,0.0105,0.006,-0.012,0.0007,44.8
0.078,0.0142,0.0097,0.0022,0.009,44.5
0.079,0.018,0.0127,0.009,0.015,44.3
0.08,0.0165,0.0142,0.0067,0.0157,44.1
0.081,0.0127,0.0097,-0.0053,0.0112,43.8
0.082,0.012,0.0075,-0.0195,0.009,43.6
0.083,0.0142,0.0097,-0.0353,0.0067,43.2
0.084,0.0157,0.0097,-0.0525,0.003,43.0
0.085,0.0172,0.0112,-0.0691,0.006,42.7
0.086,0.0225,0.012,-0.0863,0.0127,42.4
0.087,0.027,0.0112,-0.0968,0.0157,42.2
0.088,0.024,0.0105,-0.093,0.0165,41.8
0.089,0.0157,0.009,-0.0728,0.0217,41.6
0.09,0.0045,-0.0008,-0.0248,0.03,41.3
0.091,-0.0218,-0.0173,0.0592,0.0435,41.0
0.092,-0.0518,-0.0308,0.114,0.0472,40.8
0.093,-0.0645,-0.0368,0.1432,0.0495,40.5
0.094,-0.0871,-0.0533,0.2505,0.0652,40.2
0.095,-0.1238,-0.0691,0.3135,0.0615,39.9
0.096,-0.12,-0.0585,0.2647,0.0487,39.6
0.097,-0.0908,-0.0398,0.213,0.0442,39.4
0.098,-0.057,-0.021,0.141,0.0307,39.1
0.099,-0.027,-0.0105,0.0862,0.0202,38.8
0.1,-0.0068,-0.0023,0.0165,0.0142,38.5
0.101,0.03,0.0165,-0.039,0.012,38.2
0.102,0.0465,0.0255,-0.0323,0.012,37.9
0.103,0.0435,0.0217,0.0067,0.0007,37.6
0.104,0.0202,0.0052,0.057,-0.012,37.3
0.105,0.0015,0.0007,0.0352,-0.024,37.0
0.106,0.0067,0.0015,0.0082,-0.0173,36.7
0.107,0.0067,0.003,-0.0053,0.0037,36.4
0.108,0.012,0.0082,-0.03,0.027,36.1
0.109,0.0232,0.012,-0.0555,0.0532,35.8
0.11,0.0322,0.0127,-0.0795,0.0502,35.5
0.111,0.0382,0.0142,-0.0968,0.009,35.2
0.112,0.0427,0.0217,-0.1163,-0.0278,34.9
0.113,0.045,0.0225,-0.1223,-0.0398,34.6
0.114,0.039,0.0165,-0.1193,-0.042,34.2
0.115,0.0315,0.0165,-0.1178,-0.0383,34.0
0.116,0.0292,0.0157,-0.1148,-0.0256,33.7
0.117,0.0255,0.0157,-0.105,-0.0128,33.3
0.118,0.0217,0.0127,-0.0968,-0.0128,33.0
0.119,0.0195,0.0135,-0.0803,-0.0256,32.8
0.12,0.018,0.0142,-0.0691,-0.0315,32.4
0.121,0.015,0.012,-0.0585,-0.021,32.1
0.122,0.009,0.0082,-0.0443,-0.003,31.8
0.123,0.0097,0.0052,-0.0413,0.0105,31.5
0.124,0.0127,0.0082,-0.0398,0.0187,31.1
0.125,0.015,0.003,-0.042,0.0262,30.8
0.126,0.0142,-0.003,-0.048,0.027,30.4
0.127,0.0135,-0.0038,-0.0495,0.0127,30.1
0.128,0.0157,-0.003,-0.0518,-0.0068,29.7
0.129,0.018,0.0022,-0.0495,-0.0143,29.4
0.13,0.0165,0.0052,-0.0368,-0.0165,29.1
0.131,0.0127,0.0045,-0.0368,-0.015,28.8
0.132,0.0127,0.0037,-0.0353,-0.0158,28.4
0.133,0.0105,0.003,-0.0293,-0.0195,28.1
0.134,0.0052,0.0015,-0.0256,-0.0173,27.8
0.135,0.0007,-0.003,-0.0188,-0.0158,27.4
0.136,-0.0015,-0.0053,-0.0165,-0.0128,27.1
0.137,0.0,-0.0046,-0.0143,-0.0105,26.7
0.138,-0.0015,-0.003,-0.0181,-0.0098,26.4
0.139,-0.0046,0.003,-0.0256,-0.0105,26.1
0.14,-0.003,0.0082,-0.0278,-0.012,25.7
0.141,-0.0068,0.0082,-0.0218,-0.0195,25.4
0.142,-0.0068,0.0067,-0.0098,-0.0368,25.0
0.143,-0.0083,0.0082,-0.0008,-0.0353,24.7
0.144,-0.0105,0.0105,0.0112,-0.0195,24.3
0.145,-0.0143,0.009,0.0255,-0.0165,23.9
0.146,-0.0181,0.0082,0.0307,0.0,23.6
0.147,-0.0173,0.0082,0.027,0.0322,23.2
0.148,-0.0128,0.0037,0.0307,0.0405,22.9
0.149,-0.0068,-0.0046,0.0322,0.0277,22.5
0.15,-0.003,-0.0105,0.0315,0.0052,22.1
0.151,0.0045,-0.0113,0.03,-0.0113,21.8
0.152,0.0135,-0.0143,0.027,-0.0105,21.5
0.153,0.0165,-0.0128,0.0255,-0.0158,21.1
0.154,0.0127,-0.0068,0.0142,-0.0225,20.7
0.155,0.0105,-0.0015,0.0037,-0.0128,20.4
0.156,0.009,-0.003,0.0022,-0.0068,20.0
0.157,0.003,-0.0098,-0.0053,-0.0113,19.7
0.158,-0.0015,-0.0135,-0.0053,-0.0023,19.3
0.159,-0.0105,-0.0128,-0.0008,0.0202,18.9
0.16,-0.0135,-0.0098,0.0045,0.0345,18.5
0.161,-0.0158,-0.0128,0.0105,0.039,18.2
0.162,-0.0165,-0.0158,0.012,0.0397,17.9
0.163,-0.0105,-0.0105,0.0165,0.033,17.5
0.164,-0.003,-0.0046,0.024,0.0262,17.1
0.165,0.006,0.0052,0.0315,0.024,16.8
0.166,0.0142,0.015,0.0315,0.0165,16.4
0.167,0.0135,0.015,0.0345,0.0052,16.1
0.168,0.006,0.0075,0.0352,-0.0015,15.7
0.169,-0.0008,0.0015,0.0285,-0.0075,15.3
0.17,-0.0083,-0.0015,0.0165,-0.0143,14.9
0.171,-0.0135,-0.0023,0.0112,-0.0158,14.6
0.172,-0.0091,0.0045,-0.0075,-0.0195,14.2
0.173,0.0007,0.0097,-0.024,-0.0256,13.9
0.174,-0.0023,0.0052,0.009,-0.0263,13.5
0.175,-0.0135,0.0022,0.0255,-0.03,13.1
0.176,-0.0188,0.0022,0.0435,-0.033,12.8
0.177,-0.0323,0.0015,0.0622,-0.042,12.4
0.178,-0.0323,0.0097,0.0105,-0.0533,12.1
0.179,-0.0135,0.021,-0.0083,-0.0315,11.7
0.18,-0.0143,0.0105,0.0307,0.0007,11.3
0.181,-0.0188,-0.0068,0.0465,0.0217,11.1
0.182,-0.012,-0.015,0.0457,0.0427,10.8
0.183,-0.0091,-0.0195,0.0555,0.0397,10.5
0.184,-0.0128,-0.0285,0.0667,0.0255,10.2
0.185,-0.0128,-0.0353,0.0457,0.0135,9.9
0.186,-0.0053,-0.0338,0.0495,0.0127,9.7
0.187,-0.0068,-0.0353,0.0615,0.0202,9.4
0.188,-0.0015,-0.0263,0.0382,0.0195,9.1
0.189,0.0067,-0.0158,0.0247,0.0247,8.9
0.19,0.0045,-0.0091,0.003,0.0255,8.5
0.191,0.0015,-0.003,-0.0008,0.0202,8.3
0.192,-0.0038,0.0015,-0.0075,0.0157,8.0
0.193,-0.0008,0.0105,-0.027,0.0082,7.7
0.194,-0.0008,0.0105,-0.0143,0.0067,7.5
0.195,-0.0053,0.0045,-0.0038,0.0015,7.2
0.196,-0.006,-0.0015,-0.0008,-0.006,6.9
0.197,-0.0083,-0.003,0.0045,-0.0135,6.6
0.198,-0.0083,0.0067,0.0052,-0.0143,6.3
0.199,-0.0128,0.0082,0.0097,-0.0105,6.1
0.2,-0.0218,0.0,0.0067,-0.0135,5.8
0.201,-0.0218,-0.0046,-0.0015,-0.0135,5.7
0.202,-0.0165,-0.0053,-0.0008,-0.0113,5.5
0.203,-0.012,-0.0091,0.0037,-0.012,5.4
0.204,-0.0053,-0.0091,0.0105,-0.012,5.3
0.205,0.0007,-0.0046,0.0195,-0.0128,5.1
0.206,0.0067,-0.003,0.0195,-0.0188,5.0
0.207,0.009,0.0045,0.018,-0.0248,4.9
0.208,0.003,0.009,0.018,-0.0233,4.7
0.209,-0.0038,0.0067,0.0202,-0.0105,4.6
0.21,0.0,0.0105,0.0217,-0.0008,4.4
0.211,0.0082,0.009,0.0255,0.0052,4.3
0.212,0.012,0.0082,0.018,0.0157,4.1
0.213,0.0135,0.006,0.0037,0.0202,4.0
0.214,0.0127,-0.0046,-0.0128,0.0067,3.9
0.215,0.0067,-0.0098,-0.027,-0.0053,3.7
0.216,-0.0015,-0.0023,-0.0181,-0.003,3.6
0.217,-0.0038,0.0082,-0.0083,0.003,3.5
0.218,-0.0008,-0.0015,-0.0158,-0.0015,3.3
0.219,0.0052,-0.0203,-0.0323,-0.0091,3.2
0.22,0.018,-0.021,-0.0368,0.0052,3.0
0.221,0.0202,-0.0068,-0.0413,0.024,3.0
0.222,0.0105,0.012,-0.0555,0.0292,3.0
0.223,0.0045,0.0277,-0.054,0.0262,2.9
0.224,0.0082,0.0322,-0.0405,0.012,2.9
0.225,0.0142,0.0292,-0.0405,-0.0023,2.8
0.226,0.0217,0.0367,-0.0465,-0.012,2.7
0.227,0.0277,0.0457,-0.0525,-0.0143,2.7
0.228,0.033,0.048,-0.0511,-0.0091,2.6
0.229,0.0375,0.0457,-0.0443,-0.0083,2.6
0.23,0.0352,0.0195,-0.0353,-0.0135,2.6
0.231,0.033,-0.006,-0.0256,-0.0188,2.5
0.232,0.0285,-0.03,-0.024,-0.021,2.5
0.233,0.0195,-0.0488,-0.0233,-0.0233,2.4
0.234,0.024,-0.0495,-0.0218,-0.0308,2.4
0.235,0.0367,-0.0473,-0.0195,-0.0375,2.3
0.236,0.0322,-0.03,-0.0158,-0.0361,2.2
0.237,0.0157,-0.0158,-0.0195,-0.0315,2.2
0.238,-0.0008,-0.0008,-0.0218,-0.0278,2.2
0.239,-0.0218,0.0187,-0.0128,-0.015,2.1
0.24,-0.0278,0.03,-0.003,0.0067,2.0
0.241,-0.0181,0.0382,0.0,0.0315,2.1
0.242,-0.0098,0.0262,-0.0038,0.0442,2.1
0.243,0.0037,0.0165,-0.0181,0.0405,2.1
0.244,0.0075,0.012,0.0022,0.036,2.1
0.245,-0.0015,-0.0105,0.0502,0.0232,2.2
0.246,-0.0173,-0.033,0.0667,0.0112,2.2
0.247,-0.0346,-0.0465,0.0855,0.009,2.2
0.248,-0.0458,-0.054,0.0877,0.006,2.2
0.249,-0.039,-0.0525,0.0577,-0.0023,2.2
0.25,-0.0233,-0.0578,0.0472,-0.0038,2.3
0.251,-0.0308,-0.063,0.0607,-0.0083,2.3
0.252,-0.033,-0.0548,0.0495,-0.024,2.3
0.253,-0.0308,-0.0428,0.0367,-0.0278,2.4
0.254,-0.0248,-0.024,0.0255,-0.021,2.4
0.255,-0.0181,-0.0098,0.0127,-0.0105,2.4
0.256,-0.0218,0.0045,0.0135,0.0052,2.5
0.257,-0.0203,0.03,0.0082,0.021,2.5
0.258,-0.0128,0.0502,0.0255,0.03,2.5
0.259,-0.0038,0.0607,0.0195,0.0187,2.5
0.26,0.0045,0.069,-0.0075,-0.0008,2.6
0.261,0.0172,0.0697,-0.0143,-0.015,2.6
0.262,0.0225,0.0517,-0.0218,-0.0181,2.7
0.263,0.0232,0.0375,-0.033,-0.0075,2.9
0.264,0.018,0.039,-0.0436,-0.0008,3.0
0.265,0.0135,0.0307,-0.0518,0.0052,3.1
0.266,0.0112,0.0225,-0.0368,0.0172,3.1
0.267,0.0052,0.0195,-0.012,0.0202,3.2
0.268,0.0007,0.0075,0.0007,0.0217,3.4
0.269,-0.0015,-0.0046,0.009,0.0217,3.5
0.27,-0.0015,-0.0098,0.0052,0.0135,3.6
0.271,0.003,-0.0015,0.0007,0.0082,3.6
0.272,0.0067,0.0105,0.0082,0.0015,3.7
0.273,0.0075,0.0067,-0.0068,-0.003,3.9
0.274,0.0135,-0.003,-0.0203,0.0022,4.0
0.275,0.0217,-0.006,-0.024,0.0052,4.0
0.276,0.0202,-0.0165,-0.033,0.006,4.1
0.277,0.006,-0.0233,-0.03,0.012,4.2
0.278,-0.0113,-0.021,-0.0315,0.0075,4.4
0.279,-0.0225,-0.0225,-0.0278,-0.0083,4.5
0.28,-0.0233,-0.0263,-0.0256,-0.0263,4.5
0.281,-0.0188,-0.0225,-0.0225,-0.0315,4.7
0.282,-0.012,-0.0008,-0.0105,-0.0173,4.8
0.283,0.0022,0.0097,-0.012,-0.0075,5.0
0.284,0.0157,-0.0113,-0.0158,-0.0181,5.1
0.285,0.027,-0.0203,-0.0091,-0.0346,5.3
0.286,0.033,-0.021,0.0067,-0.045,5.4
0.287,0.0397,-0.0256,0.0127,-0.042,5.5
0.288,0.0435,-0.0158,0.0082,-0.0293,5.7
0.289,0.048,-0.0008,-0.0008,-0.0158,5.8
0.29,0.0607,0.0172,-0.0023,0.0225,6.0
0.291,0.054,0.0232,0.0052,0.06,6.1
0.292,0.0255,0.0172,0.0142,0.0675,6.3
0.293,-0.0165,0.0142,0.0195,0.0615,6.4
0.294,-0.0533,0.012,0.0157,0.0397,6.6
0.295,-0.0728,0.0052,0.0187,0.0157,6.7
0.296,-0.0863,-0.0068,0.0292,0.0045,6.8
0.297,-0.1043,-0.0068,0.0315,0.0,7.0
0.298,-0.1043,-0.0091,0.0202,0.003,7.2
0.299,-0.0608,-0.0053,0.0037,0.0105,7.3
0.3,-0.0143,0.0022,-0.0023,0.0105,7.4
0.301,0.018,0.0022,0.003,0.0105,7.5
0.302,0.0427,-0.0008,0.0015,0.0067,7.6
0.303,0.0405,-0.0105,0.0015,-0.0015,7.6
0.304,0.033,-0.0128,-0.0046,-0.0083,7.7
0.305,0.0307,-0.0083,-0.0315,-0.0105,7.7
0.306,0.0405,0.0007,-0.0495,-0.0046,7.8
0.307,0.063,0.003,-0.0465,-0.0008,7.9
0.308,0.0727,-0.0053,-0.03,-0.0008,7.9
0.309,0.0697,-0.0083,-0.0091,-0.0015,8.0
0.31,0.0525,-0.006,0.0225,-0.0068,8.1
0.311,0.0142,-0.0053,0.0427,-0.0068,8.1
0.312,-0.0195,-0.0046,0.0517,-0.0046,8.2
0.313,-0.0308,0.0022,0.042,-0.003,8.2
0.314,-0.0181,0.0082,-0.0008,-0.0038,8.3
0.315,0.0067,0.003,-0.0091,-0.0046,8.4
0.316,0.0015,-0.0068,0.0165,-0.006,8.4
0.317,-0.0181,-0.0083,0.0532,-0.0053,8.5
0.318,-0.0308,-0.0053,0.0892,-0.0038,8.5
0.319,-0.0405,-0.0053,0.0825,-0.0068,8.6
0.32,-0.0405,-0.003,0.0562,-0.0083,8.7
0.321,-0.0465,-0.0083,0.039,-0.0091,8.7
0.322,-0.0398,-0.0188,0.0255,-0.0105,8.6
0.323,-0.0203,-0.0203,0.0172,-0.0083,8.5
0.324,-0.0165,-0.012,0.0232,-0.0046,8.5
0.325,-0.0158,-0.0038,0.0367,-0.0008,8.5
0.326,-0.0158,0.0052,0.0352,0.003,8.4
0.327,-0.0105,0.009,0.0337,0.0045,8.3
0.328,0.0082,0.0082,0.018,0.0015,8.3
0.329,0.0352,0.0105,-0.0068,-0.0008,8.2
0.33,0.0322,0.0082,-0.0188,-0.006,8.1
0.331,0.0082,0.0045,-0.024,-0.0098,8.1
0.332,0.0015,0.0052,-0.0225,-0.0068,8.1
0.333,0.0075,0.0082,-0.0203,-0.0053,8.0
0.334,0.0195,0.0067,-0.0165,-0.0046,8.0
0.335,0.0187,0.0045,-0.0008,-0.003,7.9
0.336,-0.0008,0.0037,0.0187,-0.0015,7.8
0.337,-0.0195,0.0015,0.018,-0.0038,7.8
0.338,-0.024,-0.0008,0.0007,-0.0068,7.7
0.339,-0.0315,-0.003,-0.0165,-0.0008,7.6
0.34,-0.0405,-0.0008,-0.0195,0.0067,7.6
0.341,-0.0368,-0.0023,-0.003,0.0127,7.6
0.342,-0.0248,-0.0023,-0.0023,0.0217,7.6
0.343,-0.021,-0.0023,-0.0015,0.0285,7.6
0.344,-0.0308,-0.0038,-0.0068,0.0292,7.6
0.345,-0.027,-0.0023,-0.027,0.0232,7.7
0.346,-0.0256,-0.003,-0.0293,0.015,7.7
0.347,-0.0225,0.0,-0.0248,0.012,7.7
0.348,-0.0091,0.003,-0.0188,0.006,7.8
0.349,-0.0015,0.0045,-0.0158,0.003,7.8
0.35,0.021,0.0082,-0.0158,0.0015,7.8
0.351,0.0442,0.0082,-0.024,-0.003,7.9
0.352,0.054,0.0105,-0.033,-0.0046,7.9
0.353,0.0517,0.009,-0.033,-0.0075,7.9
0.354,0.0442,0.003,-0.0285,-0.012,7.9
0.355,0.039,-0.0053,-0.0248,-0.0165,8.0
0.356,0.0352,-0.0053,-0.0346,-0.0143,8.0
0.357,0.0255,-0.0015,-0.0428,-0.0105,8.0
0.358,-0.0015,-0.0015,-0.0353,-0.012,8.1
0.359,-0.0256,0.0045,-0.024,-0.0098,8.1
0.36,-0.024,0.0075,-0.0203,-0.0053,8.1
0.361,-0.0053,0.0075,-0.0165,-0.003,8.2
0.362,0.0127,0.0097,-0.012,-0.0023,8.3
0.363,0.0367,0.0067,-0.0023,-0.0046,8.4
0.364,0.0592,-0.0015,0.0045,-0.0091,8.5
0.365,0.0502,-0.0046,-0.0068,-0.012,8.6
0.366,0.0315,0.0015,-0.0165,-0.0083,8.7
0.367,0.003,0.0097,-0.0195,-0.0068,8.8
0.368,-0.0135,0.0037,-0.0353,-0.0098,8.9
0.369,-0.003,-0.0091,-0.057,-0.012,9.0
0.37,0.0045,-0.0098,-0.075,-0.0091,9.1
0.371,0.0112,-0.003,-0.0668,-0.0053,9.2
0.372,0.0045,0.0052,-0.0593,-0.003,9.4
0.373,0.0112,0.009,-0.057,-0.003,9.4
0.374,0.0277,0.012,-0.0428,-0.003,9.5
0.375,0.0232,0.0112,-0.042,-0.006,9.7
0.376,0.0082,0.003,-0.0278,-0.006,9.8
0.377,0.0015,-0.0023,-0.0046,-0.0053,9.9
0.378,0.0045,-0.0023,0.0255,-0.0038,9.9
0.379,0.0007,-0.0046,0.0367,-0.0015,10.1
0.38,0.0015,-0.0091,0.0322,0.0015,10.2
0.381,-0.0015,-0.0083,0.0442,0.0052,10.3
0.382,-0.0083,-0.0023,0.0442,0.0082,10.3
0.383,-0.0105,0.003,0.0495,0.0105,10.4
0.384,-0.0128,0.0082,0.048,0.0097,10.5
0.385,-0.0091,0.0105,0.0405,0.0052,10.6
0.386,-0.0038,0.0045,0.039,0.0,10.7
0.387,-0.003,-0.0083,0.0442,-0.003,10.7
0.388,-0.0105,-0.0113,0.0577,-0.0023,10.8
0.389,-0.0165,-0.0075,0.06,-0.0008,10.9
0.39,-0.024,-0.0046,0.0547,0.0,11.0
0.391,-0.021,-0.003,0.0382,0.0007,11.1
0.392,-0.0158,0.0007,0.0217,0.0015,11.2
0.393,-0.0158,0.0015,0.0067,0.0015,11.2
0.394,-0.0135,-0.003,-0.0053,0.0,11.3
0.395,-0.0165,-0.0046,-0.0128,0.0,11.4
0.396,-0.0195,-0.0015,-0.0128,0.0007,11.5
0.397,-0.0285,-0.0008,-0.0068,0.003,11.6
0.398,-0.0346,0.0007,-0.003,0.003,11.6
0.399,-0.0308,-0.0008,-0.0015,0.0022,11.7
0.4,-0.024,-0.0046,0.0007,0.0022,11.8
0.401,-0.012,-0.0046,0.0007,0.0,11.7
0.402,-0.0008,-0.0015,-0.006,0.0007,11.7
0.403,0.0105,-0.0015,-0.0083,0.0,11.6
0.404,0.0202,0.0007,-0.0091,-0.003,11.5
0.405,0.0307,0.0045,-0.0038,-0.0008,11.5
0.406,0.0345,0.0045,0.012,0.0007,11.4
0.407,0.0382,0.0022,0.0195,0.0015,11.3
0.408,0.0382,0.0007,0.0247,-0.0008,11.2
0.409,0.0217,0.0007,0.0247,-0.0008,11.2
0.41,0.0135,-0.0008,0.0195,-0.0008,11.1
0.411,0.0075,-0.003,0.0157,-0.0008,11.0
0.412,0.0007,-0.0023,0.0097,-0.0015,10.9
0.413,-0.0008,-0.0015,0.003,-0.0023,10.9
0.414,-0.003,-0.0008,-0.0008,-0.003,10.8
0.415,-0.0053,0.0,-0.006,-0.0046,10.7
0.416,-0.012,-0.0008,-0.0083,-0.003,10.7
0.417,-0.021,0.0007,-0.0053,-0.0023,10.6
0.418,-0.0256,0.0007,-0.0068,-0.0023,10.5
0.419,-0.0203,-0.0015,-0.0068,-0.003,10.4
0.42,-0.0158,0.0007,-0.0128,-0.003,10.3
0.421,-0.0083,0.0015,-0.0158,-0.0023,10.3
0.422,-0.0008,0.0015,-0.0203,-0.003,10.3
0.423,0.0045,0.0015,-0.0346,-0.003,10.3
0.424,0.015,0.0052,-0.0368,-0.003,10.3
0.425,0.0195,0.003,-0.021,0.0,10.2
0.426,0.018,-0.0015,-0.0008,0.0045,10.2
0.427,0.0142,0.0,0.0165,0.0052,10.2
0.428,0.015,0.0,0.0195,0.0045,10.2
0.429,0.0127,0.0015,0.018,0.0037,10.1
0.43,-0.0046,0.0037,0.021,0.0052,10.1
0.431,-0.0181,0.003,0.024,0.0037,10.1
0.432,-0.0143,0.0,0.0322,0.0015,10.0
0.433,-0.0203,-0.0098,0.0292,-0.0008,10.0
0.434,-0.0278,-0.0113,0.0247,-0.0015,10.0
0.435,-0.0158,-0.0053,0.0277,0.0022,10.0
0.436,-0.0075,-0.0053,0.0255,0.0022,9.9
0.437,0.0052,-0.0068,0.0165,0.0037,9.9
0.438,0.021,-0.0113,0.0052,0.0045,9.9
0.439,0.0195,-0.015,0.0015,0.0045,9.9
0.44,0.0195,-0.0113,0.0142,0.0075,9.8
0.441,0.0142,-0.0091,0.033,0.0067,9.9
0.442,-0.0068,-0.0143,0.0465,0.0082,10.0
0.443,-0.0293,-0.0143,0.0562,0.0127,10.1
0.444,-0.0338,-0.0083,0.0592,0.0157,10.2
0.445,-0.0233,-0.0015,0.0615,0.0165,10.3
0.446,-0.0143,-0.0015,0.0532,0.0135,10.3
0.447,-0.0105,-0.0015,0.0345,0.0127,10.4
0.448,-0.012,-0.003,0.033,0.012,10.5
0.449,-0.0105,-0.0068,0.0307,0.012,10.6
0.45,-0.0083,-0.0068,0.0292,0.0112,10.7
0.451,-0.0143,-0.0083,0.0307,0.0075,10.8
0.452,-0.024,-0.0083,0.027,0.0067,10.9
0.453,-0.0218,-0.0083,0.0217,0.0082,11.0
0.454,-0.0218,-0.0075,0.0217,0.0097,11.1
0.455,-0.0181,-0.0046,0.0135,0.0075,11.2
0.456,0.003,-0.0038,0.0105,0.0045,11.3
0.457,0.0307,-0.0023,0.0262,0.006,11.4
0.458,0.039,0.0007,0.0195,0.0022,11.5
0.459,0.0285,0.003,0.0007,0.0015,11.6
0.46,0.018,0.0045,-0.015,0.0,11.7
0.461,0.003,0.003,-0.0353,-0.0038,11.7
0.462,-0.012,0.0045,-0.0458,-0.003,11.7
0.463,-0.0181,0.0097,-0.0555,-0.003,11.8
0.464,-0.0143,0.0127,-0.0615,-0.003,11.8
0.465,-0.0083,0.0165,-0.0653,-0.0068,11.9
0.466,-0.0046,0.012,-0.0683,-0.012,11.9
0.467,-0.0135,0.003,-0.0743,-0.0135,12.0
0.468,-0.0368,-0.0008,-0.0735,-0.0135,12.0
0.469,-0.0353,0.0015,-0.0721,-0.0105,12.1
0.47,-0.0128,0.009,-0.0788,-0.0098,12.1
0.471,0.0172,0.0112,-0.078,-0.0105,12.1
0.472,0.042,0.0135,-0.0773,-0.0105,12.2
0.473,0.0532,0.0157,-0.0698,-0.0098,12.2
0.474,0.0577,0.0127,-0.0578,-0.012,12.3
0.475,0.054,0.012,-0.0383,-0.0128,12.3
0.476,0.0517,0.0112,-0.0105,-0.0113,12.4
0.477,0.0555,0.009,0.0007,-0.012,12.4
0.478,0.0585,0.0052,-0.0053,-0.0135,12.5
0.479,0.0495,0.006,-0.0203,-0.0143,12.5
0.48,0.0367,0.0045,-0.0233,-0.012,12.6
0.481,0.0285,0.0037,-0.0233,-0.0083,12.6
0.482,0.027,0.006,-0.0315,-0.0053,12.6
0.483,0.024,0.0075,-0.0308,-0.0038,12.6
0.484,0.012,0.0052,-0.03,-0.0053,12.6
0.485,0.0037,0.0015,-0.0263,-0.0083,12.5
0.486,-0.0053,0.0,-0.0248,-0.0091,12.5
0.487,-0.0091,-0.0008,-0.0278,-0.0105,12.5
0.488,-0.0068,-0.0008,-0.024,-0.0075,12.5
0.489,-0.0083,0.0007,-0.0248,-0.0053,12.5
0.49,-0.0068,0.0037,-0.0256,-0.0053,12.4
0.491,-0.003,0.0045,-0.024,-0.0068,12.4
0.492,-0.003,0.0045,-0.0218,-0.0046,12.4
0.493,-0.0075,0.0052,-0.0173,-0.0046,12.4
0.494,-0.0068,0.0037,-0.0128,-0.0046,12.4
0.495,-0.0091,0.0022,-0.0068,0.0007,12.4
0.496,-0.0105,0.0007,0.0,0.0007,12.3
0.497,-0.0105,-0.0008,0.003,0.0007,12.3
0.498,-0.0135,-0.0046,0.0037,0.0,12.3
0.499,-0.0135,-0.0053,0.009,0.0,12.3
0.5,-0.0128,-0.0053,0.0112,0.0007,12.2
0.501,-0.006,-0.0038,0.006,0.0007,12.2
0.502,0.0,-0.0008,0.012,0.003,12.2
0.503,0.0067,0.0022,0.018,0.0037,12.1
0.504,0.0142,0.0052,0.0172,0.003,12.1
0.505,0.0225,0.0052,0.0217,0.0037,12.1
0.506,0.0262,0.0052,0.03,0.003,12.0
0.507,0.0195,0.0045,0.0345,0.0007,12.0
0.508,0.0097,0.003,0.033,-0.0008,11.9
0.509,-0.0008,0.0022,0.0292,0.0007,11.9
0.51,-0.0075,0.0007,0.0232,0.0015,11.8
0.511,-0.0173,-0.0038,0.0142,0.0015,11.7
0.512,-0.0218,-0.006,0.0105,-0.0008,11.7
0.513,-0.0195,-0.0068,0.009,-0.0008,11.7
0.514,-0.0181,-0.0091,0.0097,0.0007,11.6
0.515,-0.0158,-0.0105,0.012,0.0007,11.6
0.516,-0.0158,-0.0091,0.012,0.0015,11.5
0.517,-0.0158,-0.0075,0.015,0.0015,11.5
0.518,-0.0165,-0.0053,0.0195,0.0022,11.4
0.519,-0.0143,-0.006,0.0217,0.0037,11.4
0.52,-0.0135,-0.0075,0.0247,0.006,11.3
0.521,-0.0181,-0.0098,0.0307,0.0067,11.3
0.522,-0.0195,-0.0105,0.027,0.0052,11.2
0.523,-0.0173,-0.0083,0.0157,0.0037,11.2
0.524,-0.0105,-0.0053,0.0082,0.0015,11.2
0.525,-0.0075,-0.0015,-0.0083,-0.0015,11.2
0.526,0.0,0.0015,-0.0263,-0.0053,11.1
0.527,0.009,0.0052,-0.0368,-0.0068,11.1
0.528,0.0157,0.0082,-0.0458,-0.006,11.1
0.529,0.027,0.0075,-0.0495,-0.0083,11.0
0.53,0.0315,0.0075,-0.0511,-0.0075,11.0
0.531,0.033,0.0067,-0.0436,-0.0053,11.0
0.532,0.027,0.006,-0.0346,-0.0038,10.9
0.533,0.018,0.003,-0.0278,-0.0053,10.9
0.534,0.0082,0.0007,-0.0203,-0.0053,10.9
0.535,-0.0008,0.0022,-0.0181,-0.0053,10.8
0.536,0.0015,0.0007,-0.0181,-0.006,10.8
0.537,0.0,0.0015,-0.0218,-0.0038,10.7
0.538,-0.0015,0.003,-0.0195,-0.0038,10.7
0.539,-0.0008,0.003,-0.0158,-0.003,10.7
0.54,-0.0015,0.0037,-0.0165,-0.0008,10.6
0.541,0.0007,0.003,-0.015,-0.0008,10.6
0.542,-0.0015,0.003,-0.0083,0.0007,10.6
0.543,-0.0015,0.003,-0.0075,0.0015,10.6
0.544,-0.0008,0.0,-0.006,0.0022,10.6
0.545,-0.0015,-0.0015,0.003,0.003,10.6
0.546,-0.003,-0.003,0.0075,0.0045,10.5
0.547,-0.0068,-0.0046,0.018,0.0067,10.5
0.548,-0.0105,-0.0068,0.024,0.006,10.5
0.549,-0.0143,-0.006,0.0255,0.0052,10.5
0.55,-0.0128,-0.0068,0.0277,0.0045,10.4
0.551,-0.0113,-0.0068,0.0285,0.003,10.4
0.552,-0.0143,-0.0068,0.0345,0.0052,10.4
0.553,-0.0143,-0.0083,0.0367,0.0082,10.4
0.554,-0.0143,-0.0075,0.0412,0.006,10.4
0.555,-0.0143,-0.0091,0.0412,0.0045,10.3
0.556,-0.0105,-0.0091,0.0367,0.0037,10.3
0.557,-0.0105,-0.0083,0.036,0.003,10.3
0.558,-0.0083,-0.0075,0.033,0.003,10.3
0.559,-0.0068,-0.0068,0.0255,0.0015,10.3
0.56,-0.006,-0.0046,0.0195,-0.0008,10.2
0.561,-0.0046,-0.003,0.018,-0.0015,10.2
0.562,-0.0046,-0.003,0.0157,-0.0008,10.2
0.563,-0.003,-0.0023,0.0157,-0.0008,10.2
0.564,-0.0046,-0.003,0.0187,0.0015,10.2
0.565,-0.0068,-0.0008,0.0217,0.003,10.2
0.566,-0.0075,-0.0015,0.0232,0.0022,10.2
0.567,-0.0046,-0.0008,0.0255,0.003,10.2
0.568,-0.0015,-0.0015,0.0262,0.003,10.2
0.569,-0.003,-0.0023,0.0255,0.0022,10.2
0.57,-0.0015,-0.0015,0.021,0.0015,10.2
0.571,-0.0015,-0.003,0.018,-0.0008,10.2
0.572,-0.0038,-0.0015,0.0165,-0.0008,10.2
0.573,-0.0046,-0.0023,0.015,-0.0023,10.2
0.574,-0.0038,-0.003,0.0105,-0.0023,10.2
0.575,-0.0015,-0.0015,0.012,-0.0008,10.2
0.576,-0.0046,-0.003,0.0165,0.0007,10.2
0.577,-0.0053,-0.003,0.0142,0.0015,10.2
0.578,-0.0038,-0.0015,0.012,0.0007,10.2
0.579,0.0,0.0007,0.0105,0.0007,10.2
0.58,0.003,-0.0015,0.0052,-0.0008,10.2
0.581,0.003,0.0007,-0.0008,-0.0023,10.2
0.582,0.0045,0.0015,-0.0015,-0.0008,10.2
0.583,0.0037,0.0,-0.003,-0.0015,10.2
0.584,0.0067,0.0007,-0.0053,-0.0023,10.2
0.585,0.0105,0.0,-0.0068,-0.0015,10.2
0.586,0.0105,0.0015,-0.0105,-0.0015,10.1
0.587,0.0105,0.003,-0.0188,-0.0038,10.1
0.588,0.0112,0.003,-0.0233,-0.006,10.1
0.589,0.0127,0.0037,-0.021,-0.0068,10.1
0.59,0.0127,0.003,-0.0188,-0.0046,10.0
0.591,0.0082,0.003,-0.0143,-0.0023,10.0
0.592,0.0052,0.0045,-0.0135,-0.0015,10.0
0.593,0.0007,0.0045,-0.012,-0.003,10.0
0.594,0.0022,0.003,-0.012,-0.003,10.0
0.595,0.0015,0.003,-0.012,-0.003,9.9
0.596,0.0015,0.0037,-0.0091,-0.0015,9.9
0.597,0.003,0.0037,-0.0075,-0.0008,9.9
0.598,0.0015,0.003,-0.0053,0.0007,9.9
0.599,0.0037,0.0037,-0.0091,-0.0008,9.9
0.6,0.003,0.0022,-0.0098,-0.0008,9.8
0.601,0.003,0.0015,-0.0105,-0.0015,9.8
0.602,0.0045,0.0015,-0.0135,-0.0015,9.8
0.603,0.0052,0.003,-0.0128,-0.0015,9.7
0.604,0.0045,0.0037,-0.0135,-0.0015,9.7
0.605,0.0045,0.0037,-0.0158,-0.0023,9.7
0.606,0.0075,0.003,-0.0188,-0.003,9.6
0.607,0.0052,0.0007,-0.0188,-0.0015,9.6
0.608,0.0052,0.0015,-0.0158,-0.0023,9.5
0.609,0.0015,0.0007,-0.0105,-0.0008,9.5
0.61,0.0007,-0.0015,-0.0083,0.0015,9.4
0.611,0.0007,-0.0015,-0.0046,-0.0008,9.4
0.612,-0.003,-0.0008,-0.003,-0.0015,9.4
0.613,-0.0015,0.0,-0.0015,0.0,9.4
0.614,-0.0015,-0.003,0.003,0.0,9.3
0.615,-0.0023,-0.0046,0.0105,0.0007,9.3
0.616,-0.0046,-0.006,0.0187,0.0022,9.2
0.617,-0.0068,-0.0053,0.021,0.0015,9.2
0.618,-0.0053,-0.0046,0.0195,0.003,9.2
0.619,-0.0046,-0.0068,0.018,0.0007,9.1
0.62,-0.003,-0.0046,0.0127,0.0,9.0
0.621,-0.006,-0.0015,0.0105,0.0015,9.0
0.622,-0.0068,-0.0015,0.012,-0.0008,9.0
0.623,-0.0046,-0.003,0.0067,-0.0015,9.0
0.624,-0.0008,-0.0015,-0.0008,-0.003,9.0
0.625,0.0082,0.003,-0.024,-0.0068,8.9
0.626,0.0165,0.0052,-0.024,-0.0046,8.9
0.627,0.0112,-0.003,0.0157,0.0045,8.8
0.628,0.0007,-0.0075,0.024,0.0045,8.8
0.629,0.0007,-0.006,0.0225,0.0022,8.8
0.63,-0.0008,-0.0046,0.015,0.003,8.7
0.631,0.0007,-0.0046,0.015,0.0045,8.7
0.632,-0.0023,-0.006,0.0255,0.0045,8.6
0.633,-0.003,-0.0046,0.0157,0.0022,8.6
0.634,-0.0015,-0.003,0.0112,0.0015,8.6
0.635,-0.0023,-0.0023,0.0037,0.0007,8.5
0.636,-0.0015,-0.0015,0.0127,0.0015,8.5
0.637,-0.0053,-0.0015,0.006,-0.0015,8.5
0.638,-0.003,0.0007,-0.0015,-0.003,8.5
0.639,-0.003,0.0007,-0.003,-0.0015,8.4
0.64,-0.003,0.0015,-0.0091,0.0007,8.3
0.641,-0.0015,0.0007,0.0045,0.0037,8.3
0.642,-0.0023,0.0007,-0.0008,0.0015,8.3
0.643,-0.0015,-0.0008,0.0052,0.0015,8.3
0.644,-0.003,0.0007,0.009,0.0022,8.2
0.645,-0.0038,0.0007,0.0045,0.0015,8.2
0.646,-0.003,-0.0008,0.0045,0.0015,8.1
0.647,-0.0008,0.0015,0.0015,0.0,8.1
0.648,0.0007,0.0007,0.003,-0.0008,8.1
0.649,-0.0015,0.0015,0.006,0.0007,8.1
0.65,-0.0023,-0.0008,0.0127,0.003,8.0
0.651,-0.0053,-0.0015,0.0127,0.003,8.0
0.652,-0.0075,-0.0008,0.0105,0.003,7.9
0.653,-0.0068,0.0007,0.0082,0.0037,7.9
0.654,-0.0053,0.0,0.0127,0.0037,7.9
0.655,-0.0046,-0.0046,0.0165,0.0037,7.8
0.656,-0.0053,-0.0053,0.0195,0.0045,7.8
0.657,-0.0068,-0.0053,0.0172,0.003,7.7
0.658,-0.0053,-0.0015,0.012,0.0037,7.7
0.659,-0.0046,0.0007,0.0135,0.003,7.7
0.66,-0.0053,-0.0015,0.012,0.0007,7.6
0.661,-0.0046,-0.003,0.012,0.0015,7.6
0.662,-0.0038,-0.0046,0.0135,0.0007,7.6
0.663,-0.003,-0.0046,0.0127,0.0007,7.6
0.664,-0.0015,-0.0023,0.0105,0.0015,7.6
0.665,0.0007,-0.0023,0.0082,0.003,7.5
0.666,0.0,-0.0015,0.0105,0.003,7.5
0.667,-0.0015,-0.0038,0.0135,0.0015,7.5
0.668,-0.0008,-0.0053,0.0157,0.0022,7.5
0.669,0.0007,-0.0053,0.0105,0.0015,7.4
0.67,0.0007,-0.003,0.0007,-0.0015,7.4
0.671,0.0045,-0.0015,-0.0015,-0.0023,7.4
0.672,0.0022,-0.0015,-0.0008,-0.0023,7.3
0.673,0.0015,0.0,-0.0023,-0.003,7.3
0.674,0.0015,0.0,-0.003,-0.003,7.3
0.675,-0.0015,-0.0008,-0.0008,-0.0008,7.3
0.676,-0.0008,0.0,0.0,0.0007,7.2
0.677,-0.0008,-0.0008,0.0037,0.0,7.2
0.678,-0.0015,-0.0015,0.006,-0.0008,7.2
0.679,0.0007,-0.0015,0.0015,-0.0008,7.2
0.68,0.0022,0.0015,-0.003,-0.0008,7.1
0.681,0.0015,0.003,-0.006,-0.003,7.1
0.682,0.0015,0.0,-0.0053,-0.0023,7.1
0.683,0.003,0.0,-0.0053,-0.003,7.1
0.684,0.003,0.0007,-0.003,-0.0015,7.1
0.685,0.003,0.0015,0.0022,0.0015,7.1
0.686,-0.0008,0.0015,0.0067,0.0007,7.1
0.687,0.0015,0.0015,0.0067,0.0007,7.0
0.688,0.0015,0.0015,0.003,-0.0008,7.0
0.689,0.0015,-0.0008,0.0045,0.0015,7.0
0.69,0.0022,-0.0023,0.0045,0.0015,7.0
0.691,-0.0015,-0.0015,0.0037,0.0007,7.0
0.692,-0.003,0.0,0.0052,0.0007,6.9
0.693,-0.0015,-0.0008,0.0067,0.0,6.9
0.694,-0.0015,0.0,0.0082,0.0007,6.9
0.695,-0.003,-0.0015,0.0075,-0.0008,6.9
0.696,-0.0015,-0.0023,0.006,0.0015,6.9
0.697,0.0,-0.0015,0.0045,0.0007,6.8
0.698,0.0007,-0.003,0.0007,0.0,6.8
0.699,0.0015,-0.0008,0.0,0.0015,6.8
0.7,0.003,-0.0008,0.0045,0.0007,6.7
0.701,0.0015,-0.003,0.0045,0.0007,6.7
0.702,-0.0008,-0.0015,0.0045,0.0,6.7
0.703,-0.0008,-0.0008,0.0045,0.0015,6.7
0.704,-0.0015,0.0,-0.0015,0.0007,6.7
0.705,0.0015,0.0,-0.0038,0.0,6.7
0.706,0.0015,-0.0008,-0.0008,0.0007,6.7
0.707,-0.0008,-0.0008,-0.0046,-0.0008,6.7
0.708,0.0015,-0.0015,-0.0075,-0.0015,6.7
0.709,0.0007,0.0007,-0.0098,-0.003,6.7
0.71,0.0015,0.0007,-0.0128,-0.0015,6.6
0.711,0.003,0.0,-0.0091,-0.0008,6.6
0.712,0.0022,0.0015,-0.0046,0.0007,6.6
0.713,0.0007,-0.0008,-0.0015,0.0015,6.6
0.714,-0.0008,0.0007,0.0007,0.0007,6.6
0.715,0.0,0.0022,-0.0015,0.0007,6.6
0.716,0.003,0.003,-0.0068,0.0007,6.5
0.717,0.0045,0.003,-0.0165,-0.0038,6.5
0.718,0.0067,0.0067,-0.0308,-0.0053,6.5
0.719,0.0135,0.009,-0.0405,-0.0068,6.5
0.72,0.0157,0.0105,-0.045,-0.0075,6.4
0.721,0.0157,0.0112,-0.0458,-0.0083,6.4
0.722,0.0172,0.0105,-0.0503,-0.012,6.4
0.723,0.0187,0.0142,-0.057,-0.0158,6.4
0.724,0.0202,0.0127,-0.0623,-0.0158,6.4
0.725,0.0232,0.012,-0.0653,-0.0158,6.4
0.726,0.0217,0.0105,-0.0668,-0.0181,6.4
0.727,0.0225,0.006,-0.0721,-0.0173,6.4
0.728,0.0217,0.0052,-0.0668,-0.0143,6.3
0.729,0.0202,0.0052,-0.0593,-0.012,6.3
0.73,0.0202,0.0067,-0.0495,-0.0091,6.3
0.731,0.0165,0.0082,-0.0473,-0.0083,6.3
0.732,0.018,0.0082,-0.054,-0.0091,6.3
0.733,0.0195,0.0082,-0.0495,-0.0068,6.3
0.734,0.0172,0.0082,-0.0495,-0.006,6.3
0.735,0.018,0.0082,-0.048,-0.006,6.3
0.736,0.0157,0.009,-0.0488,-0.0053,6.2
0.737,0.0157,0.0097,-0.0488,-0.0053,6.2
0.738,0.0135,0.009,-0.042,-0.0038,6.2
0.739,0.0097,0.0097,-0.039,-0.0015,6.2
0.74,0.0082,0.0082,-0.033,-0.0023,6.1
0.741,0.0067,0.006,-0.0256,0.0,6.1
0.742,0.0052,0.003,-0.0181,0.0015,6.1
0.743,0.003,0.0015,-0.0091,0.0015,6.1
0.744,-0.0008,0.0007,-0.0008,0.0,6.1
0.745,-0.0015,-0.0015,0.003,0.0015,6.1
0.746,-0.0023,-0.0015,0.003,0.0037,6.1
0.747,-0.006,-0.003,0.0045,0.0037,6.1
0.748,-0.0083,-0.003,0.009,0.0037,6.1
0.749,-0.0083,-0.0015,0.0142,0.0022,6.1
0.75,-0.0075,-0.0008,0.0112,0.0015,6.1
0.751,-0.0053,-0.0008,0.0082,0.0007,6.1
0.752,-0.0068,-0.0023,0.0045,0.0007,6.1
0.753,-0.0046,-0.0015,-0.0008,0.0007,6.0
0.754,-0.003,-0.0008,-0.0008,0.0,6.0
0.755,-0.0015,-0.0015,-0.0008,0.0,6.0
0.756,-0.0008,-0.0015,0.0045,0.0007,6.0
0.757,-0.003,-0.0015,0.0075,0.0,6.0
0.758,-0.003,-0.0008,0.0097,0.0,6.0
0.759,-0.003,-0.0015,0.0127,0.0007,6.0
0.76,-0.006,-0.003,0.0127,0.0007,5.9
0.761,-0.0083,-0.0038,0.018,0.0007,5.9
0.762,-0.0105,-0.0046,0.0217,0.0022,5.9
0.763,-0.0105,-0.0068,0.0262,0.0045,5.9
0.764,-0.0091,-0.0068,0.0307,0.0052,5.9
0.765,-0.0083,-0.0053,0.0292,0.0037,5.9
0.766,-0.0083,-0.0075,0.0315,0.0045,5.9
0.767,-0.0083,-0.0075,0.0322,0.0052,5.9
0.768,-0.0091,-0.0053,0.0292,0.0045,5.9
0.769,-0.0105,-0.0046,0.0277,0.003,5.9
0.77,-0.0091,-0.0053,0.024,0.003,5.9
0.771,-0.0083,-0.0046,0.024,0.003,5.9
0.772,-0.0098,-0.003,0.0255,0.003,5.9
0.773,-0.0091,-0.0038,0.0255,0.0037,5.9
0.774,-0.0091,-0.0053,0.024,0.0045,5.9
0.775,-0.0068,-0.0046,0.0202,0.0045,5.9
0.776,-0.0068,-0.0023,0.0165,0.0045,5.9
0.777,-0.0068,-0.0038,0.0165,0.0045,5.8
0.778,-0.0046,-0.0053,0.0217,0.0022,5.8
0.779,-0.0038,-0.0053,0.0232,0.0015,5.8
0.78,-0.003,-0.0053,0.0255,0.0007,5.8
0.781,-0.0053,-0.0046,0.0292,0.003,5.8
0.782,-0.0091,-0.0046,0.0292,0.0052,5.8
0.783,-0.0105,-0.0053,0.0315,0.0037,5.8
0.784,-0.012,-0.0083,0.0322,0.0037,5.8
0.785,-0.0098,-0.0068,0.03,0.0052,5.8
0.786,-0.0091,-0.0053,0.0277,0.0052,5.8
0.787,-0.0083,-0.0046,0.0232,0.0067,5.8
0.788,-0.0068,-0.0015,0.021,0.0082,5.8
0.789,-0.0068,-0.0008,0.0195,0.009,5.8
0.79,-0.006,0.0007,0.0187,0.0097,5.8
0.791,-0.0068,0.0007,0.0217,0.0127,5.8
0.792,-0.0068,-0.0015,0.0232,0.0127,5.8
0.793,-0.0053,-0.0015,0.0255,0.006,5.8
0.794,-0.0046,-0.0015,0.0277,0.0015,5.8
0.795,-0.0023,-0.0068,0.0262,-0.0015,5.9
0.796,-0.0015,-0.0083,0.021,-0.0046,5.9
0.797,-0.0023,-0.006,0.018,-0.003,5.9
0.798,-0.0046,-0.0075,0.018,-0.0046,5.9
0.799,-0.003,-0.0068,0.0165,-0.0075,5.9
0.8,-0.0015,-0.0068,0.012,-0.0083,5.9
0.801,-0.0015,-0.0046,0.0082,-0.0083,5.9
0.802,0.0007,-0.0046,0.0045,-0.0105,5.9
0.803,0.0045,-0.003,0.0007,-0.0113,5.9
0.804,0.0067,-0.0015,-0.0038,-0.012,5.9
0.805,0.0045,-0.0015,-0.0098,-0.0113,5.9
0.806,0.003,0.0007,-0.0158,-0.0068,5.9
0.807,0.0022,0.0015,-0.0128,-0.003,5.9
0.808,0.0015,0.0007,-0.0083,-0.0008,5.9
0.809,0.0037,0.0015,-0.0075,0.0022,5.9
0.81,0.0052,-0.0008,-0.0075,-0.0008,5.9
0.811,0.0045,0.0015,-0.0083,-0.0015,5.9
0.812,0.0015,0.0037,-0.0046,-0.0015,5.9
0.813,0.0015,0.003,-0.0091,-0.006,5.9
0.814,0.0037,0.006,-0.0173,-0.006,5.9
0.815,0.0037,0.0075,-0.012,-0.003,6.0
0.816,0.003,0.003,-0.003,0.0015,6.0
0.817,-0.0015,-0.0015,0.0045,0.0075,6.0
0.818,-0.0046,-0.0015,0.009,0.012,6.0
0.819,-0.0038,0.0,0.0082,0.0112,6.0
0.82,-0.0053,0.0007,0.009,0.006,6.0
0.821,-0.0053,-0.0015,0.0105,0.006,6.0
0.822,-0.0046,-0.0075,0.012,0.0067,6.0
0.823,-0.0068,-0.0098,0.0157,0.0097,6.0
0.824,-0.0046,-0.006,0.0142,0.0082,6.1
0.825,-0.003,-0.0015,0.009,0.0022,6.1
0.826,-0.0046,0.0007,0.0105,0.0007,6.1
0.827,-0.003,0.0022,0.0127,-0.003,6.1
0.828,-0.0023,0.003,0.0105,-0.0008,6.2
0.829,-0.003,0.0015,0.012,0.003,6.2
0.83,-0.0046,-0.0008,0.012,0.0045,6.2
0.831,-0.0075,-0.003,0.012,0.0105,6.2
0.832,-0.0038,-0.003,0.0105,0.009,6.2
0.833,-0.0008,-0.003,0.0082,0.0052,6.3
0.834,0.0,-0.003,0.0067,0.003,6.3
0.835,0.0037,-0.003,0.0037,0.0007,6.3
0.836,0.0067,-0.0008,0.0015,0.0007,6.3
0.837,0.0067,-0.0008,0.0015,-0.0023,6.3
0.838,0.0052,-0.0015,0.0,-0.0046,6.3
0.839,0.0037,0.0,-0.0023,-0.0068,6.4
0.84,0.0037,-0.0015,0.0007,-0.0083,6.4
0.841,0.0037,-0.0015,-0.0023,-0.0083,6.4
0.842,0.003,-0.0008,-0.0015,-0.006,6.4
0.843,0.0007,0.0007,-0.0015,-0.0068,6.5
0.844,0.0007,0.0007,-0.0015,-0.0046,6.5
0.845,0.0015,-0.0008,0.0022,-0.003,6.5
0.846,0.0007,0.0007,-0.0008,-0.0046,6.6
0.847,-0.0015,0.0007,0.0007,-0.0053,6.6
0.848,-0.0008,-0.0008,0.0015,-0.0046,6.6
0.849,-0.0008,0.0,-0.0015,-0.003,6.6
0.85,-0.0008,-0.0008,-0.003,-0.0015,6.7
0.851,-0.0008,-0.0008,-0.0023,0.0007,6.7
0.852,-0.0008,-0.0008,-0.0046,0.0007,6.7
0.853,0.0007,-0.0008,-0.0075,-0.0008,6.7
0.854,0.0045,0.0022,-0.0091,0.0007,6.7
0.855,0.003,0.0007,-0.0083,0.0015,6.8
0.856,0.0015,-0.0008,-0.0083,0.0045,6.8
0.857,0.0022,0.003,-0.0068,0.006,6.8
0.858,0.0015,0.0022,-0.0105,0.006,6.9
0.859,0.0045,0.0007,-0.0165,0.0015,6.9
0.86,0.006,0.0037,-0.0195,-0.0008,6.9
0.861,0.009,0.003,-0.021,-0.0015,7.0
0.862,0.0097,0.003,-0.0195,-0.0008,7.0
0.863,0.0067,0.0037,-0.0165,-0.0008,7.0
0.864,0.006,0.003,-0.0128,-0.003,7.1
0.865,0.0037,0.0022,-0.012,-0.0053,7.1
0.866,0.0045,0.003,-0.0113,-0.006,7.2
0.867,0.0052,0.0022,-0.012,-0.0053,7.2
0.868,0.0052,0.0007,-0.0135,-0.0038,7.2
0.869,0.0022,0.0007,-0.0143,-0.0046,7.2
0.87,0.003,0.0015,-0.015,-0.0068,7.3
0.871,0.0045,0.0045,-0.0113,-0.0075,7.3
0.872,0.0045,0.0067,-0.0105,-0.0053,7.4
0.873,0.0052,0.0052,-0.0091,-0.0053,7.4
0.874,0.0067,0.0045,-0.0075,-0.0068,7.4
0.875,0.006,0.0037,-0.0053,-0.0053,7.5
0.876,0.003,0.0015,-0.0046,-0.0053,7.5
0.877,0.0022,0.0,-0.0038,-0.0038,7.6
0.878,0.0052,0.0007,-0.0068,-0.0015,7.6
0.879,0.0045,0.0037,-0.006,0.0045,7.6
0.88,0.0052,0.0015,-0.0015,0.012,7.6
0.881,0.003,-0.0008,-0.0068,0.0165,7.7
0.882,0.0052,0.0007,-0.0105,0.0232,7.7
0.883,0.0045,0.003,-0.006,0.0202,7.8
0.884,0.0007,0.0045,-0.0008,0.0187,7.8
0.885,0.0022,0.009,0.0007,0.0195,7.9
0.886,0.0015,0.0105,-0.0015,0.0135,7.9
0.887,0.0022,0.0075,-0.0015,0.0097,7.9
0.888,0.003,0.0037,-0.0015,0.0015,8.0
0.889,0.0,0.0007,-0.0068,-0.0053,8.0
0.89,0.0,-0.003,-0.0075,-0.0083,8.1
0.891,0.0007,-0.0083,-0.0083,-0.0098,8.1
0.892,0.0015,-0.0135,-0.0098,-0.0068,8.1
0.893,0.0022,-0.0143,-0.0128,-0.0165,8.2
0.894,0.0022,-0.0105,-0.0105,-0.0383,8.2
0.895,0.0007,-0.0098,-0.0075,-0.0428,8.3
0.896,0.0015,-0.012,-0.0083,-0.0398,8.3
0.897,-0.0008,-0.0068,-0.0083,-0.0383,8.3
0.898,-0.0023,-0.0053,-0.0105,-0.0308,8.4
0.899,0.0,-0.0068,-0.0083,-0.0256,8.4
0.9,0.0007,-0.006,-0.0083,-0.0203,8.5
0.901,-0.0008,-0.0046,-0.0068,-0.0053,8.5
0.902,0.0,-0.0008,-0.0083,0.0097,8.5
0.903,0.0015,0.0052,-0.0098,0.015,8.6
0.904,0.0045,0.012,-0.0091,0.0112,8.6
0.905,0.0052,0.0142,-0.0105,0.012,8.6
0.906,0.0045,0.0172,-0.0083,0.009,8.7
0.907,0.003,0.0195,-0.0053,0.0045,8.7
0.908,0.0052,0.018,-0.003,0.0105,8.8
0.909,0.003,0.0142,0.003,0.0157,8.8
0.91,0.0007,0.0105,0.0007,0.027,8.9
0.911,-0.0023,0.009,0.0,0.0457,8.9
0.912,-0.0046,0.0,0.0045,0.045,8.9
0.913,-0.0053,-0.0158,0.0045,0.0292,9.0
0.914,-0.0068,-0.03,0.0112,0.0202,9.0
0.915,-0.0046,-0.0361,0.0127,0.0075,9.0
0.916,-0.0023,-0.0353,0.0052,-0.0091,9.1
0.917,-0.0023,-0.03,0.003,-0.03,9.1
0.918,-0.0046,-0.0293,-0.0038,-0.0593,9.1
0.919,-0.0023,-0.0256,-0.0091,-0.0743,9.2
0.92,0.0007,-0.012,-0.0083,-0.0668,9.2
0.921,0.0045,0.0067,-0.0075,-0.0256,9.3
0.922,0.0052,0.0405,-0.0068,0.0277,9.3
0.923,0.0037,0.0667,-0.0068,0.057,9.3
0.924,0.003,0.0495,-0.012,0.054,9.4
0.925,0.0007,0.006,-0.0143,0.033,9.4
0.926,-0.0008,-0.0233,-0.0143,0.0105,9.4
0.927,0.0007,-0.0428,-0.0218,-0.0008,9.4
0.928,0.003,-0.0383,-0.027,0.003,9.5
0.929,0.0067,-0.03,-0.0293,0.021,9.5
0.93,0.0082,-0.0315,-0.0285,0.054,9.6
0.931,0.0075,0.0075,-0.0218,0.0637,9.6
0.932,0.0105,0.0495,-0.0225,0.048,9.6
0.933,0.0105,0.054,-0.0225,0.0427,9.7
0.934,0.009,0.0322,-0.0263,0.039,9.7
0.935,0.006,0.0195,-0.0323,0.018,9.7
0.936,0.0052,-0.0068,-0.033,-0.0361,9.8
0.937,0.0105,-0.0315,-0.033,-0.084,9.8
0.938,0.0157,0.0172,-0.0353,-0.0923,9.8
0.939,0.0202,0.069,-0.0361,-0.0856,9.9
0.94,0.0225,0.0615,-0.0353,-0.0803,9.9
0.941,0.0195,-0.0053,-0.0383,-0.0856,9.9
0.942,0.0127,-0.0548,-0.0405,-0.0848,10.0
0.943,0.0097,-0.0465,-0.039,-0.0691,10.0
0.944,0.0067,-0.0615,-0.0346,-0.0511,10.1
0.945,0.0067,-0.0615,-0.0315,-0.0375,10.1
0.946,0.006,-0.0398,-0.027,-0.0233,10.2
0.947,0.003,0.0007,-0.0218,0.0,10.2
0.948,0.0,0.0855,-0.0203,0.0135,10.3
0.949,-0.0046,0.1485,-0.015,0.0315,10.3
0.95,-0.0068,0.1275,-0.0091,0.042,10.3
0.951,-0.0075,0.0637,-0.0015,0.0382,10.3
0.952,-0.0053,0.039,0.003,0.039,10.4
0.953,-0.0068,0.0517,0.0007,0.021,10.4
0.954,-0.0091,0.057,0.003,-0.0015,10.5
0.955,-0.0053,0.0255,0.0165,-0.015,10.5
0.956,0.0,0.0097,0.03,-0.0195,10.6
0.957,0.0052,0.0052,0.0367,-0.012,10.6
0.958,0.0015,0.0217,0.0382,0.0045,10.7
0.959,-0.0053,0.0382,0.0337,0.0202,10.7
0.96,-0.0091,-0.0046,0.0352,0.0232,10.7
0.961,-0.0135,-0.0578,0.0367,0.009,10.8
0.962,-0.0128,-0.1013,0.0382,-0.0023,10.9
0.963,-0.0128,-0.105,0.0442,0.0157,11.0
0.964,-0.0158,-0.099,0.0427,0.0315,11.1
0.965,-0.0181,-0.0698,0.0465,0.0405,11.1
0.966,-0.0195,-0.0128,0.0532,0.0607,11.2
0.967,-0.0165,0.009,0.054,0.1005,11.3
0.968,-0.0158,0.006,0.0517,0.147,11.3
0.969,-0.0135,0.0067,0.048,0.1545,11.4
0.97,-0.0135,0.0277,0.0442,0.138,11.5
0.971,-0.015,0.0315,0.0405,0.1372,11.6
0.972,-0.015,0.024,0.0382,0.1282,11.7
0.973,-0.0143,0.0105,0.036,0.1005,11.7
0.974,-0.0113,-0.0173,0.0345,0.1177,11.8
0.975,-0.0128,-0.0593,0.0367,0.165,11.9
0.976,-0.012,-0.0998,0.0367,0.1672,11.9
0.977,-0.0135,-0.1418,0.0345,0.1117,12.0
0.978,-0.0165,-0.1785,0.0315,0.036,12.1
0.979,-0.0165,-0.1515,0.0292,-0.0188,12.1
0.98,-0.0158,-0.0825,0.027,-0.0653,12.2
0.981,-0.0165,-0.0128,0.0277,-0.1411,12.3
0.982,-0.0158,0.0247,0.0292,-0.2498,12.5
0.983,-0.0158,0.099,0.0277,-0.2955,12.6
0.984,-0.0165,0.1545,0.0292,-0.2603,12.7
0.985,-0.012,0.1515,0.0315,-0.273,12.8
0.986,-0.0105,0.1845,0.0285,-0.3383,12.9
0.987,-0.0105,0.1612,0.0172,-0.3645,13.0
0.988,-0.012,0.0892,0.0097,-0.3375,13.1
0.989,-0.0105,-0.015,0.0112,-0.3083,13.3
0.99,-0.0083,-0.078,0.012,-0.252,13.4
0.991,-0.0053,-0.0863,0.009,-0.1155,13.5
0.992,0.0007,-0.1006,0.0135,0.0472,13.6
0.993,0.0045,-0.0488,0.0195,0.1515,13.7
0.994,0.0052,-0.0368,0.0202,0.2182,13.8
0.995,0.0067,-0.0375,0.0232,0.2572,13.9
0.996,0.0067,-0.0285,0.0217,0.249,14.0
0.997,0.0075,-0.0308,0.0157,0.2422,14.2
0.998,0.0097,-0.024,0.0105,0.237,14.3
0.999,0.0082,-0.042,0.006,0.228,14.4
1.0,0.0082,-0.0495,0.0,0.2092,14.5
1.001,0.006,-0.063,-0.0083,0.141,14.7
1.002,0.003,-0.0698,-0.0165,0.0307,14.8
1.003,0.0045,-0.0706,-0.024,-0.0923,15.0
1.004,0.003,-0.054,-0.0293,-0.1583,15.2
1.005,0.0007,-0.027,-0.0278,-0.1763,15.3
1.006,-0.0008,-0.0308,-0.0256,-0.195,15.5
1.007,0.0007,-0.0413,-0.0256,-0.1958,15.7
1.008,0.0052,-0.0458,-0.0248,-0.1875,15.8
1.009,0.0142,-0.0008,-0.033,-0.1441,16.0
1.01,0.0217,0.0862,-0.0361,-0.0915,16.2
1.011,0.027,0.0975,-0.021,-0.0383,16.3
1.012,0.0277,0.015,-0.0083,0.0405,16.5
1.013,0.0232,-0.0743,-0.0075,0.1005,16.6
1.014,0.0195,-0.0998,-0.0105,0.1597,16.8
1.015,0.0157,-0.0721,-0.0135,0.177,17.0
1.016,0.0097,-0.048,-0.024,0.1192,17.1
1.017,0.0045,-0.0135,-0.0278,0.0637,17.3
1.018,0.0015,0.0367,-0.0293,0.018,17.5
1.019,0.0007,0.1485,-0.0375,-0.0158,17.6
1.02,0.0045,0.2647,-0.0413,-0.0225,17.8
1.021,0.0097,0.219,-0.0375,-0.0278,18.0
1.022,0.009,0.1312,-0.024,-0.0083,18.3
1.023,0.0052,0.114,-0.0181,0.033,18.4
1.024,0.0052,0.0765,-0.0091,0.0442,18.7
1.025,0.0037,0.0135,-0.0128,0.045,18.9
1.026,0.0067,-0.0233,-0.0263,0.0517,19.1
1.027,0.009,-0.0338,-0.0256,0.0532,19.3
1.028,0.0105,-0.0346,-0.0361,0.048,19.5
1.029,0.0142,-0.0203,-0.0315,0.0465,19.8
1.03,0.012,0.0202,-0.0225,0.048,20.0
1.031,0.009,0.033,-0.015,0.0502,20.2
1.032,0.0067,0.0052,-0.0098,0.0592,20.4
1.033,0.0075,0.0127,-0.0188,0.0697,20.6
1.034,0.0105,0.012,-0.0218,0.069,20.8
1.035,0.0082,-0.0053,-0.0203,0.054,21.1
1.036,0.0067,-0.0083,-0.0128,0.0345,21.3
1.037,0.0052,-0.0218,-0.0068,0.0217,21.5
1.038,0.003,-0.0203,0.0007,0.0045,21.7
1.039,0.0045,-0.0203,0.0,-0.0158,21.9
1.04,0.0052,-0.012,-0.0023,-0.0353,22.1
1.041,0.0045,0.0007,0.003,-0.0465,22.5
1.042,-0.0008,0.0015,0.006,-0.0293,22.7
1.043,-0.0038,0.0075,0.0037,-0.0278,23.0
1.044,-0.0038,0.0007,-0.0008,-0.0443,23.3
1.045,-0.0038,-0.0091,0.0022,-0.0511,23.6
1.046,-0.0038,-0.0225,0.0052,-0.0743,23.9
1.047,-0.0068,-0.0428,0.0075,-0.093,24.2
1.048,-0.0046,-0.0458,0.0105,-0.0878,24.5
1.049,-0.003,-0.0361,0.0097,-0.0765,24.8
1.05,-0.0008,-0.0278,0.0097,-0.0585,25.1
1.051,0.0007,-0.0233,0.0105,-0.0203,25.4
1.052,0.0,-0.0195,0.0082,0.0135,25.7
1.053,0.0015,-0.0143,0.0097,0.0352,26.0
1.054,-0.0015,-0.003,0.0165,0.0457,26.3
1.055,-0.0008,0.0067,0.021,0.0382,26.6
1.056,-0.0015,0.0097,0.0232,0.0345,26.9
1.057,-0.0023,0.009,0.021,0.0322,27.2
1.058,-0.0023,0.0082,0.0202,0.0247,27.5
1.059,-0.0023,0.0052,0.0195,0.0142,27.8
1.06,-0.0015,0.0052,0.0217,0.006,28.1
1.061,-0.0046,0.0067,0.027,0.0045,28.4
1.062,-0.0068,0.0067,0.033,0.0052,28.7
1.063,-0.012,0.006,0.0382,0.0082,29.0
1.064,-0.0128,0.0067,0.0405,0.0082,29.3
1.065,-0.0143,0.0075,0.0427,0.0112,29.7
1.066,-0.0158,0.0045,0.0427,0.0105,29.9
1.067,-0.0158,-0.0008,0.0465,0.006,30.2
1.068,-0.0181,-0.0053,0.0472,0.0075,30.6
1.069,-0.0173,-0.0083,0.0532,0.009,30.9
1.07,-0.0173,-0.0083,0.0555,0.0105,31.2
1.071,-0.0165,-0.0091,0.0577,0.0082,31.5
1.072,-0.0158,-0.0113,0.0667,0.0082,31.8
1.073,-0.0195,-0.012,0.0652,0.0067,32.1
1.074,-0.0195,-0.0143,0.0615,0.0037,32.4
1.075,-0.0195,-0.0143,0.0577,0.0015,32.8
1.076,-0.0181,-0.0128,0.0592,0.0007,33.0
1.077,-0.0158,-0.0128,0.0615,0.0015,33.3
1.078,-0.0165,-0.012,0.057,0.003,33.7
1.079,-0.0165,-0.012,0.0592,0.0045,34.0
1.08,-0.0143,-0.0091,0.0517,0.0015,34.3
1.081,-0.0091,-0.006,0.0405,-0.0038,34.5
1.082,-0.0046,-0.0046,0.0322,-0.0068,34.8
1.083,-0.0015,-0.0008,0.0195,-0.0113,35.0
1.084,0.0007,0.0,0.012,-0.0105,35.3
1.085,0.003,0.0007,0.0067,-0.0105,35.5
1.086,0.0067,-0.0008,0.0022,-0.012,35.8
1.087,0.0067,-0.0038,0.003,-0.0091,36.0
1.088,0.003,-0.003,0.003,-0.0046,36.3
1.089,0.0007,-0.0038,-0.0038,-0.0038,36.5
1.09,0.0015,0.0,-0.012,-0.0023,36.8
1.091,0.0022,0.0022,-0.0091,-0.0046,37.0
1.092,-0.0015,-0.0008,-0.006,-0.0075,37.3
1.093,0.0015,-0.0008,-0.0105,-0.006,37.5
1.094,0.0045,0.0015,-0.0165,-0.0083,37.8
1.095,0.0037,0.003,-0.0233,-0.0068,38.0
1.096,0.0067,0.0045,-0.0285,-0.006,38.2
1.097,0.0067,0.0015,-0.0293,-0.0068,38.5
1.098,0.0067,-0.0023,-0.0293,-0.0068,38.7
1.099,0.009,-0.0046,-0.0278,-0.0068,39.0
1.1,0.0097,-0.0053,-0.0218,-0.003,39.2
1.101,0.009,0.0,-0.0173,-0.0053,39.5
1.102,0.0067,0.0015,-0.0203,-0.0083,39.8
1.103,0.0067,0.0037,-0.0203,-0.0053,40.1
1.104,0.0082,0.0067,-0.0233,-0.0075,40.4
1.105,0.009,0.0052,-0.027,-0.0091,40.6
1.106,0.012,0.0082,-0.0315,-0.0091,40.9
1.107,0.0105,0.0082,-0.0368,-0.0083,41.2
1.108,0.0105,0.0067,-0.033,-0.0091,41.5
1.109,0.009,0.0045,-0.0278,-0.0075,41.8
1.11,0.0067,0.0052,-0.0256,-0.0068,42.0
1.111,0.0082,0.0067,-0.0315,-0.0105,42.3
1.112,0.0075,0.006,-0.0346,-0.0105,42.6
1.113,0.0105,0.0052,-0.0405,-0.012,42.9
1.114,0.0165,0.0075,-0.0555,-0.015,43.1
1.115,0.021,0.0105,-0.0645,-0.0143,43.4
1.116,0.0232,0.012,-0.0668,-0.0143,43.7
1.117,0.0202,0.0112,-0.0675,-0.0128,44.0
1.118,0.0202,0.012,-0.0645,-0.0128,44.3
1.119,0.0195,0.0127,-0.0645,-0.012,44.5
1.12,0.018,0.012,-0.0653,-0.012,44.8
1.121,0.0202,0.0097,-0.0593,-0.012,45.1
1.122,0.018,0.009,-0.0533,-0.0098,45.5
1.123,0.0172,0.0082,-0.0503,-0.0098,45.8
1.124,0.015,0.0075,-0.0488,-0.0098,46.2
1.125,0.0105,0.0067,-0.0518,-0.012,46.5
1.126,0.0135,0.0097,-0.06,-0.0135,46.8
1.127,0.0165,0.0105,-0.0585,-0.0128,47.2
1.128,0.012,0.0075,-0.048,-0.0091,47.5
1.129,0.0105,0.0075,-0.0503,-0.0091,47.9
1.13,0.0127,0.0052,-0.048,-0.0083,48.2
1.131,0.0127,0.0067,-0.0518,-0.0105,48.5
1.132,0.0165,0.0082,-0.054,-0.0105,48.9
1.133,0.0142,0.0045,-0.033,-0.0046,49.2
1.134,0.0105,0.003,-0.0263,-0.0038,49.5
1.135,0.006,0.0015,-0.0181,-0.0015,49.9
1.136,0.0007,0.0,-0.0105,-0.0008,50.2
1.137,0.0007,-0.0015,-0.0046,-0.0008,50.6
1.138,-0.0015,-0.003,0.0082,0.003,50.9
1.139,-0.0023,-0.003,0.0165,0.003,51.3
1.14,-0.0046,-0.0046,0.0202,0.0045,51.6
1.141,-0.0091,-0.006,0.0217,0.0052,51.9
1.142,-0.0105,-0.0068,0.0247,0.006,52.2
1.143,-0.012,-0.0075,0.0277,0.0052,52.6
1.144,-0.0128,-0.0083,0.0337,0.006,52.9
1.145,-0.0128,-0.0083,0.0382,0.0075,53.2
1.146,-0.0143,-0.006,0.0382,0.0075,53.5
1.147,-0.0128,-0.0053,0.0382,0.0067,53.9
1.148,-0.012,-0.006,0.036,0.0052,54.2
1.149,-0.012,-0.0053,0.0315,0.0022,54.6
1.15,-0.0083,-0.0038,0.0225,0.0015,54.9
1.151,-0.0053,-0.0008,0.015,0.0007,55.2
1.152,-0.0053,-0.0008,0.0112,-0.0008,55.6
1.153,-0.0053,-0.0015,0.0067,-0.0015,55.9
1.154,-0.0015,0.0,0.0015,-0.0008,56.2
1.155,-0.0008,0.0,-0.003,0.0,56.6
1.156,-0.0008,0.0015,-0.0046,-0.0008,56.9
1.157,0.0022,0.003,-0.012,-0.0023,57.2
1.158,0.0015,0.0022,-0.012,-0.0046,57.6
1.159,0.0015,0.0015,-0.0083,-0.0046,57.9
1.16,0.0052,0.0015,-0.012,-0.0046,58.2
1.161,0.0052,0.0007,-0.0091,-0.0053,58.5
1.162,0.0037,0.0,-0.0068,-0.0038,58.8
1.163,0.0022,0.0,-0.0038,-0.0015,59.0
1.164,0.0007,-0.0008,-0.0015,-0.0008,59.3
1.165,0.0022,-0.0008,-0.0023,-0.0023,59.6
1.166,0.0015,0.0007,0.0,-0.0038,59.8
1.167,0.0007,0.0007,0.0015,-0.0038,60.1
1.168,0.0015,-0.0008,0.0015,-0.003,60.4
1.169,0.0007,-0.0008,0.0,-0.0038,60.7
1.17,-0.0008,0.0007,-0.006,-0.0038,61.0
1.171,0.0007,-0.0008,-0.0046,-0.0008,61.2
1.172,-0.0015,-0.0023,0.006,0.0007,61.5
1.173,-0.0038,-0.0015,0.012,0.0037,61.8
1.174,-0.003,-0.003,0.0142,0.0045,62.1
1.175,-0.0053,-0.003,0.0142,0.0045,62.3
1.176,-0.0068,-0.003,0.015,0.0067,62.6
1.177,-0.0083,-0.0046,0.0187,0.0067,62.9
1.178,-0.0091,-0.003,0.0127,0.0052,63.1
1.179,-0.0083,-0.0008,0.0097,0.0045,63.4
1.18,-0.006,-0.0015,0.0097,0.0052,63.7
1.181,-0.0046,0.0,0.0052,0.0052,63.9
1.182,-0.0023,0.0,0.0037,0.0052,64.1
1.183,-0.0015,-0.0015,0.003,0.0045,64.3
1.184,-0.0008,-0.0008,0.0007,0.0015,64.6
1.185,0.0015,-0.0015,0.0007,0.0045,64.8
1.186,0.0007,0.0007,0.0022,0.0067,65.0
1.187,-0.0015,-0.0008,0.0082,0.0075,65.2
1.188,-0.0023,-0.0038,0.015,0.0082,65.4
1.189,-0.0015,-0.003,0.0172,0.0067,65.7
1.19,-0.0023,-0.0046,0.018,0.0082,65.9
1.191,-0.003,-0.0053,0.0172,0.009,66.1
1.192,-0.0046,-0.0068,0.0202,0.0097,66.3
1.193,-0.0053,-0.0068,0.024,0.0127,66.6
1.194,-0.0083,-0.0053,0.0292,0.015,66.8
1.195,-0.0105,-0.0053,0.0352,0.0165,67.0
1.196,-0.012,-0.0053,0.0382,0.018,67.2
1.197,-0.012,-0.0053,0.0405,0.0172,67.4
1.198,-0.0143,-0.0068,0.0427,0.018,67.6
1.199,-0.0158,-0.0075,0.0435,0.0187,67.9
1.2,-0.0143,-0.0083,0.042,0.0165,68.1
1.201,-0.0128,-0.0083,0.0405,0.0172,68.3
1.202,-0.0105,-0.0083,0.0367,0.0157,68.4
1.203,-0.012,-0.0083,0.0375,0.0157,68.6
1.204,-0.0128,-0.0083,0.0405,0.0172,68.8
1.205,-0.0128,-0.0091,0.042,0.015,68.9
1.206,-0.0135,-0.0083,0.0442,0.0142,69.1
1.207,-0.0113,-0.0098,0.048,0.012,69.3
1.208,-0.012,-0.0105,0.0502,0.012,69.4
1.209,-0.0143,-0.0105,0.0532,0.0112,69.6
1.21,-0.0165,-0.0091,0.0525,0.012,69.8
1.211,-0.015,-0.0083,0.0532,0.0135,69.9
1.212,-0.0158,-0.0091,0.0607,0.0105,70.1
1.213,-0.0181,-0.0091,0.0577,0.012,70.3
1.214,-0.0158,-0.0075,0.0525,0.0105,70.5
1.215,-0.0143,-0.0068,0.0427,0.006,70.6
1.216,-0.0083,-0.0053,0.036,0.0067,70.8
1.217,-0.0091,-0.0046,0.036,0.0067,71.0
1.218,-0.0098,-0.003,0.024,0.0037,71.1
1.219,-0.0053,-0.003,0.0202,0.0007,71.3
1.22,-0.0053,-0.003,0.018,0.0015,71.5
1.221,-0.0038,-0.0008,0.009,0.0007,71.5
1.222,0.0007,0.0007,-0.0008,-0.0015,71.6
1.223,0.0022,0.0015,-0.0128,-0.003,71.7
1.224,0.0082,0.0052,-0.027,-0.0068,71.8
1.225,0.0127,0.0082,-0.0323,-0.0083,71.9
1.226,0.012,0.0067,-0.03,-0.0068,71.9
1.227,0.0135,0.006,-0.0368,-0.0083,72.0
1.228,0.015,0.0052,-0.039,-0.0091,72.1
1.229,0.0127,0.006,-0.045,-0.0091,72.2
1.23,0.0195,0.0067,-0.0503,-0.0105,72.3
1.231,0.0217,0.0067,-0.0488,-0.0113,72.3
1.232,0.0195,0.009,-0.0533,-0.0098,72.4
1.233,0.0195,0.009,-0.0495,-0.0105,72.5
1.234,0.0165,0.0105,-0.0465,-0.0075,72.6
1.235,0.0165,0.0097,-0.0465,-0.0046,72.6
1.236,0.015,0.009,-0.0458,-0.0068,72.7
1.237,0.0165,0.0097,-0.0488,-0.0113,72.8
1.238,0.0165,0.0105,-0.0503,-0.0143,72.8
1.239,0.0157,0.0105,-0.0511,-0.0181,72.9
1.24,0.018,0.009,-0.0533,-0.0195,73.0
1.241,0.0172,0.006,-0.0495,-0.0158,73.1
1.242,0.0157,0.0067,-0.0458,-0.0091,73.1
1.243,0.0127,0.0067,-0.0405,-0.0053,73.1
1.244,0.0105,0.0037,-0.033,-0.0046,73.2
1.245,0.0067,0.0045,-0.0315,-0.0068,73.2
1.246,0.0067,0.0045,-0.0256,-0.006,73.2
1.247,0.0067,0.0037,-0.0195,-0.0023,73.3
1.248,0.0097,0.0037,-0.0195,-0.0046,73.3
1.249,0.0105,0.003,-0.0165,-0.003,73.3
1.25,0.009,0.0015,-0.0135,-0.003,73.3
1.251,0.006,0.0,-0.0128,-0.0053,73.4
1.252,0.0015,0.0,-0.0113,-0.0015,73.4
1.253,0.003,0.0015,-0.0091,-0.0015,73.4
1.254,0.0037,-0.0008,-0.0068,-0.003,73.5
1.255,0.0037,-0.0015,0.0015,-0.0008,73.5
1.256,0.0015,-0.0038,-0.0008,-0.0023,73.5
1.257,0.0,-0.0008,-0.0015,-0.0046,73.6
1.258,-0.0023,-0.0008,0.0052,-0.0023,73.6
1.259,-0.003,-0.0023,0.0097,0.0022,73.6
1.26,-0.0046,-0.003,0.0202,0.0045,73.7
1.261,-0.0075,-0.0053,0.024,0.003,73.7
1.262,-0.0046,-0.0046,0.0217,0.0015,73.6
1.263,-0.0046,-0.0038,0.0217,0.0007,73.6
1.264,-0.0053,-0.0046,0.0165,0.0,73.6
1.265,-0.003,-0.0046,0.0127,0.0,73.5
1.266,-0.0046,-0.0038,0.012,-0.0008,73.5
1.267,-0.0046,-0.0008,0.0082,-0.003,73.4
1.268,-0.0046,0.0015,0.0082,-0.0015,73.4
1.269,0.0007,0.0015,-0.0015,-0.003,73.4
1.27,0.003,0.003,-0.0113,-0.006,73.3
1.271,0.003,0.003,-0.0091,-0.0053,73.3
1.272,0.003,0.0022,-0.0105,-0.006,73.3
1.273,0.003,0.0045,-0.0165,-0.0053,73.3
1.274,0.0045,0.0045,-0.0188,-0.0083,73.2
1.275,0.0037,0.0045,-0.0218,-0.0105,73.2
1.276,0.003,0.003,-0.0158,-0.0083,73.1
1.277,0.0007,0.0007,-0.012,-0.0075,73.1
1.278,0.0007,0.0007,-0.0143,-0.0053,73.1
1.279,0.0022,0.0007,-0.0053,-0.0015,73.0
1.28,-0.0015,0.0007,-0.0015,-0.0008,72.9
1.281,-0.0008,-0.0008,0.0037,-0.0015,72.9
1.282,-0.0008,-0.0015,0.006,-0.0015,72.8
1.283,0.0,-0.0008,0.006,-0.0015,72.7
1.284,0.0007,0.0015,0.003,-0.0038,72.6
1.285,0.0067,0.0045,-0.0218,-0.0091,72.5
1.286,0.0142,0.0082,-0.039,-0.0098,72.4
1.287,0.0157,0.0075,-0.0383,-0.0083,72.3
1.288,0.012,0.0045,-0.024,-0.0053,72.2
1.289,0.006,0.0015,0.0007,-0.0008,72.1
1.29,-0.006,-0.0053,0.0345,0.0052,72.0
1.291,-0.0203,-0.0098,0.0555,0.0105,71.9
1.292,-0.0218,-0.0091,0.0517,0.009,71.8
1.293,-0.0181,-0.0068,0.0442,0.006,71.7
1.294,-0.0128,-0.0068,0.033,0.0045,71.6
1.295,-0.0068,-0.006,0.0187,-0.0015,71.5
1.296,-0.0008,-0.003,0.0007,-0.0046,71.5
1.297,0.0045,0.0007,-0.0128,-0.0053,71.3
1.298,0.006,0.003,-0.0195,-0.0053,71.2
1.299,0.0075,0.0037,-0.0188,-0.0053,71.1
1.3,0.003,0.0015,-0.0113,-0.003,71.0
1.301,0.0015,0.0007,-0.003,-0.0008,70.9
1.302,-0.0015,-0.0015,0.0037,0.0015,70.8
1.303,-0.0053,-0.0038,0.0082,0.0007,70.6
1.304,-0.003,-0.0015,-0.0023,-0.0038,70.5
1.305,0.003,0.0052,-0.0383,-0.0105,70.3
1.306,0.0157,0.0112,-0.057,-0.0105,70.2
1.307,0.0105,0.006,-0.0248,-0.003,70.1
1.308,-0.0015,-0.0008,0.0015,-0.0015,69.9
1.309,-0.0038,-0.0015,0.012,0.0022,69.7
1.31,-0.012,-0.006,0.0315,0.009,69.6
1.311,-0.0165,-0.0105,0.0435,0.009,69.5
1.312,-0.0203,-0.012,0.048,0.0082,69.3
1.313,-0.0195,-0.0091,0.0427,0.0082,69.2
1.314,-0.0143,-0.0053,0.0277,0.003,69.0
1.315,-0.0075,-0.003,0.0112,-0.0023,68.9
1.316,0.0,-0.0015,0.0045,-0.0023,68.8
1.317,0.0,-0.0015,0.0022,0.0,68.6
1.318,0.0045,-0.0008,-0.0023,0.0007,68.4
1.319,0.0067,0.0015,-0.0091,-0.0015,68.3
1.32,0.0052,-0.0008,-0.0075,-0.0008,68.1
1.321,0.003,-0.003,0.012,0.0015,68.0
1.322,-0.006,-0.0091,0.0382,0.0067,67.8
1.323,-0.012,-0.0143,0.0472,0.0075,67.6
1.324,-0.0158,-0.012,0.0555,0.0105,67.4
1.325,-0.0195,-0.012,0.0562,0.0082,67.2
1.326,-0.0135,-0.0075,0.0232,0.0007,67.0
1.327,-0.0008,-0.0015,-0.0053,-0.0023,66.8
1.328,0.0067,0.003,-0.0158,-0.0015,66.6
1.329,0.0142,0.0067,-0.0158,0.0045,66.4
1.33,0.0142,0.0082,-0.0143,0.006,66.1
1.331,0.0105,0.009,-0.0098,0.003,66.0
1.332,0.0082,0.0052,-0.0053,0.0007,65.8
1.333,0.003,0.003,-0.0015,-0.0023,65.6
1.334,0.0,0.0015,-0.0046,-0.0053,65.4
1.335,0.0007,0.0007,-0.0181,-0.0075,65.2
1.336,0.0067,0.0045,-0.0308,-0.0068,65.0
1.337,0.012,0.0082,-0.0503,-0.0091,64.8
1.338,0.0172,0.009,-0.0608,-0.0113,64.6
1.339,0.0187,0.009,-0.0675,-0.0135,64.3
1.34,0.0217,0.0142,-0.09,-0.021,64.1
1.341,0.036,0.0217,-0.132,-0.027,63.9
1.342,0.0465,0.0225,-0.1208,-0.0181,63.6
1.343,0.0307,0.009,-0.0555,-0.003,63.4
1.344,0.0135,0.003,-0.03,-0.0008,63.1
1.345,0.0007,-0.0008,0.0052,0.0045,62.9
1.346,-0.015,-0.0091,0.0345,0.0075,62.6
1.347,-0.0203,-0.012,0.057,0.009,62.3
1.348,-0.033,-0.0173,0.0802,0.0127,62.1
1.349,-0.0315,-0.0158,0.0645,0.0105,61.8
1.35,-0.0233,-0.0105,0.0525,0.0082,61.6
1.351,-0.0181,-0.0113,0.0382,-0.0008,61.3
1.352,-0.0091,-0.0083,0.0255,-0.0053,61.0
1.353,-0.0053,-0.0038,0.0045,-0.0068,60.8
1.354,0.003,0.0007,-0.0128,-0.0113,60.5
1.355,0.009,0.0052,-0.0383,-0.0173,60.3
1.356,0.0195,0.0127,-0.0728,-0.0218,60.0
1.357,0.0277,0.012,-0.0698,-0.0165,59.7
1.358,0.027,0.012,-0.0706,-0.0143,59.5
1.359,0.0277,0.0127,-0.0578,-0.0068,59.2
1.36,0.018,0.0052,-0.0195,0.018,58.9
1.361,0.0037,-0.0023,0.0172,0.0345,58.6
1.362,-0.0075,-0.0105,0.0427,0.0345,58.3
1.363,-0.0165,-0.0128,0.0532,0.0277,58.0
1.364,-0.0195,-0.0113,0.0502,0.0067,57.7
1.365,-0.0143,-0.0105,0.039,-0.0105,57.4
1.366,-0.0091,-0.0083,0.027,-0.0143,57.1
1.367,-0.003,-0.0046,0.0067,-0.0128,56.8
1.368,0.003,0.0007,-0.0143,-0.006,56.5
1.369,0.0045,0.0022,-0.0105,0.0022,56.2
1.37,0.0007,-0.0008,-0.0068,0.0052,55.9
1.371,0.0067,0.0022,-0.024,-0.0046,55.6
1.372,0.0067,0.0015,-0.0053,-0.0075,55.3
1.373,-0.0038,0.0007,0.0052,0.0007,55.0
1.374,-0.003,0.0,0.0022,0.003,54.7
1.375,-0.0075,-0.0038,0.0165,0.0052,54.4
1.376,-0.0075,-0.003,0.0045,0.0052,54.0
1.377,0.0052,0.0015,-0.0278,-0.0015,53.7
1.378,0.0112,0.0052,-0.0278,-0.0083,53.5
1.379,0.0045,0.0015,0.0082,-0.0105,53.1
1.38,-0.0068,-0.0015,0.027,-0.0113,52.8
1.381,-0.0143,-0.0053,0.0465,-0.0128,52.5
1.382,-0.0195,-0.0038,0.048,-0.0233,52.2
1.383,-0.0128,0.0015,0.0277,-0.0143,51.8
1.384,-0.003,0.003,0.0127,0.009,51.5
1.385,-0.0008,0.0007,0.0165,0.021,51.1
1.386,-0.003,-0.0046,0.0112,0.0292,50.8
1.387,0.0007,0.0,-0.0233,0.0112,50.4
1.388,0.0037,0.0007,-0.0158,-0.0091,50.1
1.389,0.0045,0.0,-0.0225,-0.003,49.8
1.39,0.0082,0.0052,-0.0353,-0.0008,49.4
1.391,0.0112,0.0045,-0.0465,-0.0188,49.1
1.392,0.0172,0.0082,-0.0668,-0.0323,48.7
1.393,0.0195,0.0082,-0.0608,-0.0293,48.4
1.394,0.0202,0.0082,-0.0691,-0.0248,48.1
1.395,0.0255,0.0142,-0.0818,-0.0165,47.7
1.396,0.0307,0.0165,-0.0885,0.0067,47.4
1.397,0.0277,0.0135,-0.0728,0.0307,47.1
1.398,0.024,0.0097,-0.0645,0.036,46.7
1.399,0.0255,0.006,-0.054,0.0292,46.4
1.4,0.0202,-0.0008,-0.0383,0.0127,46.0
1.401,0.0165,0.0045,-0.03,-0.003,45.6
1.402,0.012,0.0015,-0.0046,-0.003,45.2
1.403,0.006,-0.003,0.009,-0.003,44.8
1.404,0.0,0.0007,0.024,0.0007,44.5
1.405,-0.0053,-0.0015,0.0367,0.0052,44.1
1.406,-0.0098,-0.0015,0.0442,0.0,43.6
1.407,-0.0135,-0.0038,0.0465,-0.0053,43.2
1.408,-0.0143,-0.0053,0.0457,-0.0158,42.8
1.409,-0.0181,-0.006,0.0465,-0.0256,42.4
1.41,-0.0181,-0.0098,0.057,-0.0225,42.0
1.411,-0.0248,-0.0113,0.0735,-0.0068,41.7
1.412,-0.0278,-0.0083,0.0712,0.0082,41.3
1.413,-0.0218,-0.0046,0.0667,0.009,40.9
1.414,-0.0203,-0.0053,0.0517,0.0052,40.5
1.415,-0.0165,-0.0075,0.033,0.0052,40.0
1.416,-0.0158,-0.0098,0.0187,0.0067,39.6
1.417,-0.0128,-0.0091,0.0082,-0.0091,39.3
1.418,-0.0068,-0.0068,0.009,-0.0105,38.9
1.419,-0.0083,-0.0046,0.0075,0.0082,38.5
1.42,-0.0068,-0.003,0.0157,0.0045,38.0
1.421,-0.0068,-0.0008,0.0277,-0.0046,37.6
1.422,-0.0091,-0.0008,0.027,0.0165,37.2
1.423,-0.0091,-0.0068,0.021,0.0397,36.7
1.424,-0.0143,-0.0128,0.0202,0.0367,36.3
1.425,-0.0181,-0.0143,0.018,0.033,35.8
1.426,-0.0203,-0.0113,0.0142,0.033,35.4
1.427,-0.0181,-0.0105,0.006,0.0232,34.9
1.428,-0.0113,-0.0083,-0.0128,0.0105,34.5
1.429,-0.0046,-0.0075,-0.0158,0.0022,34.0
1.43,-0.0015,-0.0075,-0.0053,-0.012,33.6
1.431,0.0007,-0.0008,0.009,-0.0555,33.1
1.432,0.003,0.0052,0.0292,-0.0863,32.7
1.433,0.0007,0.0067,0.039,-0.0698,32.2
1.434,0.0052,0.0075,0.0375,-0.0428,31.8
1.435,0.0082,0.0105,0.0382,-0.0143,31.3
1.436,0.012,0.012,0.0315,0.0457,30.9
1.437,0.0187,0.0067,0.015,0.0877,30.4
1.438,0.0195,0.003,-0.0015,0.0765,30.0
1.439,0.0157,-0.0015,-0.006,0.0457,29.5
1.44,0.0157,-0.0135,0.0007,0.0277,29.0
1.441,0.0195,-0.0195,0.0037,0.0105,28.6
1.442,0.018,-0.0083,0.0037,-0.0068,28.1
1.443,0.0105,0.0022,-0.0008,0.0015,27.6
1.444,0.0045,0.0007,-0.0068,0.0157,27.1
1.445,-0.0053,-0.0008,-0.0068,0.018,26.6
1.446,-0.0143,0.0067,-0.0068,0.0165,26.2
1.447,-0.0135,0.0097,-0.0008,0.0315,25.7
1.448,-0.0143,0.0082,0.006,0.0367,25.2
1.449,-0.0128,0.0075,0.0052,0.0135,24.7
1.45,-0.0053,0.0,0.0067,-0.0053,24.3
1.451,-0.0046,-0.0053,0.0105,-0.015,23.8
1.452,-0.0008,-0.0053,0.003,-0.0181,23.3
1.453,0.0075,-0.0023,-0.0091,-0.0135,22.8
1.454,0.0127,-0.0008,-0.0113,-0.0068,22.3
1.455,0.0165,0.0022,-0.0188,-0.0098,21.8
1.456,0.0135,0.0052,-0.0165,-0.0158,21.4
1.457,0.0082,0.0007,-0.0046,-0.015,20.9
1.458,0.0022,-0.0008,-0.0128,-0.0143,20.4
1.459,-0.003,-0.0015,-0.0181,-0.012,19.9
1.46,-0.0083,-0.003,-0.0195,-0.0158,19.4
1.461,-0.012,0.0015,-0.0263,-0.0158,19.0
1.462,-0.0143,0.006,-0.03,-0.0181,18.5
1.463,-0.0128,0.009,-0.0413,-0.0353,18.1
1.464,-0.012,0.009,-0.048,-0.048,17.7
1.465,-0.0143,0.0082,-0.0548,-0.054,17.2
1.466,-0.0105,0.009,-0.0495,-0.0473,16.8
1.467,-0.0046,0.0067,-0.0293,-0.0158,16.3
1.468,-0.0023,0.0067,0.009,0.0352,15.9
1.469,-0.012,-0.0068,0.114,0.0787,15.4
1.47,-0.0353,-0.0195,0.141,0.0735,15.0
1.471,-0.015,0.0037,0.0007,0.033,14.6
1.472,0.0165,0.0127,-0.0128,0.0217,14.1
1.473,-0.0188,-0.0158,0.0952,0.0255,13.7
1.474,-0.0368,-0.0203,0.0667,0.0052,13.2
1.475,-0.027,-0.0158,0.0465,0.0007,12.8
1.476,-0.027,-0.012,0.0285,-0.0008,12.3
1.477,-0.006,0.0007,-0.0158,-0.0083,11.9
1.478,-0.0015,0.0015,0.0015,-0.0023,11.5
1.479,0.0075,0.003,-0.0053,-0.0046,11.0
1.48,0.0202,-0.0008,-0.0068,-0.0053,10.5
1.481,0.018,-0.0008,-0.0195,-0.0046,10.3
1.482,0.0277,0.0022,-0.0338,-0.0046,10.0
1.483,0.024,0.0,-0.0068,0.0007,9.7
1.484,0.024,0.0037,-0.0015,-0.0038,9.4
1.485,0.0367,0.003,-0.0195,-0.0083,9.0
1.486,0.039,-0.0015,-0.0068,-0.0075,8.8
1.487,0.0352,-0.0068,0.0067,-0.0083,8.5
1.488,0.0307,-0.0098,0.0067,-0.0068,8.1
1.489,0.021,-0.0091,0.015,-0.0023,7.8
1.49,0.0045,-0.0083,0.0075,-0.0053,7.5
1.491,-0.0038,-0.0023,0.0127,-0.0083,7.2
1.492,0.0142,-0.0023,0.0247,-0.0046,6.9
1.493,0.0217,-0.0083,0.0277,-0.0053,6.6
1.494,0.0097,-0.0068,0.0307,-0.0008,6.3
1.495,-0.006,-0.006,0.0285,0.0045,6.0
1.496,-0.027,-0.0023,0.0307,0.003,5.7
1.497,-0.0338,0.0022,0.0277,0.0075,5.4
1.498,-0.027,-0.0015,0.0345,0.0105,5.1
1.499,-0.0285,-0.0038,0.039,0.009,4.8
1.5,-0.0278,-0.0008,0.0352,0.0045,4.5
1.501,-0.0293,-0.003,0.042,-0.0008,4.4
1.502,-0.0203,-0.0053,0.0495,-0.0015,4.4
1.503,-0.0015,-0.0046,0.0487,-0.0046,4.3
1.504,0.0135,-0.0083,0.0345,-0.006,4.2
1.505,0.0127,-0.0143,0.0277,-0.0053,4.1
1.506,-0.0053,-0.0128,0.0255,-0.0068,4.0
1.507,-0.0143,-0.0038,0.0165,-0.0053,4.0
1.508,-0.0218,0.0075,0.009,-0.0083,3.9
1.509,-0.0233,0.009,0.0015,-0.012,3.8
1.51,-0.0195,0.006,-0.0113,-0.012,3.7
1.511,-0.0091,0.0067,-0.0263,-0.0113,3.6
1.512,0.0015,0.0097,-0.039,-0.0105,3.6
1.513,0.0007,0.009,-0.0495,-0.0105,3.5
1.514,-0.0083,0.0105,-0.06,-0.0091,3.4
1.515,0.0015,0.012,-0.0615,-0.0068,3.3
1.516,0.0202,0.012,-0.0428,-0.0075,3.2
1.517,0.033,0.0075,-0.0233,-0.012,3.1
1.518,0.0322,-0.0015,-0.0083,-0.015,3.1
1.519,0.0112,-0.0008,-0.003,-0.0128,3.0
1.52,0.003,0.006,-0.0105,-0.0105,2.9
1.521,0.0067,0.0052,-0.0225,-0.0083,2.9
1.522,0.0127,0.0052,-0.0315,-0.0046,2.9
1.523,0.0127,0.006,-0.0346,-0.003,3.0
1.524,0.0105,0.0045,-0.0465,-0.0038,3.0
1.525,0.009,-0.0091,-0.0488,-0.0068,3.1
1.526,0.0067,-0.0218,-0.057,-0.012,3.1
1.527,0.0195,-0.0181,-0.081,-0.0105,3.1
1.528,0.0217,-0.015,-0.0728,-0.0023,3.1
1.529,0.009,-0.0181,-0.048,0.0037,3.2
1.53,-0.0008,-0.0195,-0.0361,0.0045,3.2
1.531,-0.003,-0.0195,-0.033,0.0045,3.2
1.532,0.0037,-0.0218,-0.0398,-0.0015,3.3
1.533,0.0052,-0.0165,-0.045,-0.006,3.3
1.534,-0.0068,-0.0046,-0.0346,-0.0068,3.4
1.535,-0.012,0.0112,0.0045,0.0015,3.4
1.536,-0.0225,0.0142,0.057,0.018,3.4
1.537,-0.0405,0.012,0.0742,0.027,3.5
1.538,-0.0405,0.0217,0.0742,0.0315,3.5
1.539,-0.0293,0.0345,0.0525,0.027,3.5
1.54,-0.0181,0.0382,0.0217,0.0165,3.6
1.541,-0.0135,0.0255,0.027,0.012,3.6
1.542,-0.0105,0.003,0.0352,0.0067,3.7
1.543,-0.0158,-0.0203,0.0495,0.0045,3.8
1.544,-0.0195,-0.0256,0.0442,0.003,3.9
1.545,-0.0046,0.0007,0.033,0.003,4.0
1.546,0.018,0.018,0.03,0.0037,4.1
1.547,0.0405,0.0127,0.0202,0.0015,4.2
1.548,0.0532,0.0142,0.0337,0.0022,4.3
1.549,0.0525,0.0202,0.042,0.0007,4.4
1.55,0.0465,0.0247,0.0255,-0.0015,4.5
1.551,0.0412,0.0255,0.003,-0.0053,4.5
1.552,0.0285,0.0097,-0.0083,-0.0068,4.6
1.553,0.0225,0.0007,-0.012,-0.0015,4.7
1.554,0.0225,-0.0038,-0.0143,0.0067,4.8
1.555,0.0202,-0.0083,-0.0046,0.0097,4.9
1.556,0.009,-0.0083,-0.0046,0.0037,5.0
1.557,-0.0203,-0.0091,-0.0083,0.0015,5.1
1.558,-0.0488,-0.0098,-0.0128,0.0082,5.2
1.559,-0.0615,-0.0105,-0.027,0.012,5.3
1.56,-0.0585,-0.0068,-0.0465,0.012,5.3
1.561,-0.048,-0.006,-0.0593,0.0075,5.4
1.562,-0.0308,-0.003,-0.06,-0.0015,5.5
1.563,-0.0083,-0.0023,-0.0585,-0.0038,5.7
1.564,0.0157,-0.0046,-0.0503,-0.0038,5.8
1.565,0.0225,-0.0053,-0.0346,-0.0068,5.8
1.566,0.0202,-0.0083,-0.021,-0.0113,5.9
1.567,0.0337,-0.0038,-0.0263,-0.0143,6.0
1.568,0.0532,0.0015,-0.033,-0.0105,6.2
1.569,0.0532,0.0022,-0.0405,-0.0083,6.3
1.57,0.0457,-0.0015,-0.0375,-0.0091,6.3
1.571,0.0465,-0.0098,-0.0113,-0.0105,6.4
1.572,0.0322,-0.0135,0.0007,-0.0083,6.5
1.573,0.0277,-0.0046,-0.006,-0.0053,6.7
1.574,0.0247,0.0067,-0.0135,-0.0068,6.7
1.575,0.0232,0.009,0.0,-0.006,6.8
1.576,0.0217,0.0105,0.024,-0.0038,6.9
1.577,0.0142,0.0127,0.0165,-0.0015,7.0
1.578,0.0277,0.0135,-0.0128,0.0015,7.2
1.579,0.0375,0.0067,-0.0353,-0.0008,7.2
1.58,0.0255,0.0015,-0.0495,-0.0068,7.3
1.581,-0.0181,-0.0008,-0.06,-0.0091,7.3
1.582,-0.066,0.0015,-0.066,-0.0008,7.3
1.583,-0.0721,0.0097,-0.0653,0.009,7.3
1.584,-0.0503,0.0142,-0.0555,0.0045,7.3
1.585,-0.0173,0.018,-0.0293,0.0,7.3
1.586,0.0097,0.0142,-0.0091,-0.0008,7.2
1.587,0.009,0.0015,-0.0105,-0.0083,7.2
1.588,0.0,-0.006,-0.0053,-0.012,7.2
1.589,-0.012,-0.0083,-0.0046,-0.0113,7.2
1.59,-0.0098,-0.0075,0.0052,-0.006,7.2
1.591,0.0007,-0.0083,0.0172,-0.003,7.2
1.592,-0.003,-0.0091,0.0157,-0.0046,7.2
1.593,0.003,-0.003,0.012,-0.0098,7.1
1.594,0.003,0.0007,0.009,-0.0195,7.1
1.595,-0.0128,-0.0038,0.018,-0.0195,7.1
1.596,-0.024,-0.0053,0.0262,-0.0158,7.1
1.597,-0.0256,-0.003,0.0352,-0.0038,7.0
1.598,-0.0315,-0.0046,0.0465,0.0135,7.0
1.599,-0.0578,-0.0053,0.0465,0.0217,7.0
1.6,-0.0871,-0.0023,0.042,0.0202,6.9
1.601,-0.0863,0.003,0.0367,0.015,6.9
1.602,-0.0615,0.003,0.045,0.0105,6.9
1.603,-0.0353,-0.0053,0.0555,0.0082,6.9
1.604,-0.0091,-0.0128,0.057,0.012,6.9
1.605,0.006,-0.012,0.0615,0.0127,6.9
1.606,0.0217,-0.0091,0.0607,0.015,6.9
1.607,0.0345,-0.0128,0.06,0.018,6.9
1.608,0.0397,-0.0195,0.0615,0.0165,6.9
1.609,0.0397,-0.0218,0.0592,0.0097,6.9
1.61,0.0337,-0.0135,0.048,0.0045,7.0
1.611,0.0375,-0.003,0.033,0.0022,7.0
1.612,0.0277,0.003,0.0412,0.0037,7.0
1.613,0.0127,0.009,0.0532,0.0067,7.0
1.614,0.009,0.0075,0.0555,0.003,7.0
1.615,0.0075,-0.0023,0.0502,0.003,7.0
1.616,0.015,-0.0105,0.0322,0.003,7.0
1.617,0.012,-0.006,0.0157,0.0007,7.0
1.618,-0.003,0.003,0.0067,0.0015,7.0
1.619,-0.0068,-0.0046,-0.0038,-0.0008,7.0
1.62,-0.0015,-0.0068,-0.0165,-0.0038,7.0
1.621,0.0045,0.0007,-0.0195,-0.0091,7.1
1.622,0.0007,0.0015,-0.0113,-0.0195,7.2
1.623,-0.0046,0.0052,-0.0008,-0.0278,7.4
1.624,-0.0083,0.0037,-0.0083,-0.024,7.5
1.625,-0.0158,0.0045,-0.0233,-0.0068,7.6
1.626,-0.0143,0.0052,-0.0248,0.0112,7.8
1.627,0.0015,-0.0008,-0.0293,0.0277,7.9
1.628,0.021,-0.0015,-0.0285,0.0367,8.1
1.629,0.0165,0.0015,-0.0181,0.0345,8.2
1.63,0.0045,0.0022,-0.0181,0.0202,8.3
1.631,-0.0008,0.003,-0.0173,0.003,8.5
1.632,-0.0128,0.0052,-0.0195,-0.0053,8.6
1.633,-0.0046,0.0045,-0.024,-0.0105,8.7
1.634,-0.0008,0.0007,-0.0256,-0.0128,8.9
1.635,-0.0105,-0.003,-0.03,-0.0105,9.0
1.636,-0.006,-0.0008,-0.0293,-0.006,9.1
1.637,-0.0008,0.0022,-0.0308,-0.0046,9.3
1.638,0.003,0.003,-0.0346,-0.0008,9.4
1.639,0.009,0.0082,-0.0263,0.0015,9.5
1.64,0.03,0.012,-0.0113,-0.0008,9.7
1.641,0.0442,0.009,-0.015,-0.0053,9.8
1.642,0.027,0.0067,-0.0248,-0.0091,9.9
1.643,0.0,0.003,-0.0158,-0.012,9.9
1.644,-0.033,-0.003,-0.0008,-0.0143,10.0
1.645,-0.0443,-0.0038,0.0157,-0.012,10.1
1.646,-0.0383,-0.003,0.0292,-0.0083,10.2
1.647,-0.0405,-0.0046,0.0285,-0.0053,10.3
1.648,-0.0308,-0.0008,0.0247,-0.0046,10.4
1.649,-0.0203,0.0007,0.0232,-0.006,10.5
1.65,-0.0128,0.0,0.0105,-0.006,10.6
1.651,-0.0068,-0.0008,-0.0023,-0.0038,10.6
1.652,-0.003,-0.0015,-0.0015,-0.003,10.7
1.653,0.015,-0.0008,-0.0068,-0.003,10.8
1.654,0.0217,0.0,-0.0143,-0.0023,10.9
1.655,0.0217,0.0007,-0.0278,-0.003,11.0
1.656,0.021,0.0022,-0.0428,-0.0046,11.1
1.657,0.018,0.0045,-0.0533,-0.0046,11.2
1.658,0.0217,0.003,-0.06,-0.0046,11.2
1.659,0.03,0.003,-0.0578,-0.0038,11.3
1.66,0.042,0.0045,-0.0503,-0.0046,11.4
1.661,0.0457,0.003,-0.0405,-0.0046,11.4
1.662,0.0262,0.0015,-0.0293,-0.003,11.4
1.663,-0.0015,0.0015,-0.0233,-0.0023,11.4
1.664,-0.0113,0.0007,-0.024,-0.003,11.4
1.665,-0.0053,-0.003,-0.0256,-0.0015,11.4
1.666,0.0097,-0.0046,-0.0105,-0.0008,11.4
1.667,0.009,-0.0008,0.0082,-0.003,11.4
1.668,-0.0038,0.0007,0.0135,-0.003,11.4
1.669,0.0015,0.003,0.0142,-0.003,11.4
1.67,0.0097,0.0052,0.012,-0.0038,11.4
1.671,0.0217,0.0067,0.0105,-0.003,11.4
1.672,0.0337,0.0097,0.0082,-0.003,11.4
1.673,0.0352,0.0067,0.0015,-0.006,11.3
1.674,0.0322,-0.0015,-0.0091,-0.0105,11.3
1.675,0.0217,-0.0046,-0.0143,-0.0091,11.3
1.676,0.0045,-0.0015,-0.0015,-0.0046,11.3
1.677,-0.0195,-0.0015,0.0157,-0.0008,11.3
1.678,-0.033,-0.0038,0.03,0.003,11.3
1.679,-0.0353,-0.0068,0.0345,0.0045,11.3
1.68,-0.0315,-0.0083,0.0375,0.0037,11.2
1.681,-0.0256,-0.006,0.033,0.003,11.2
1.682,-0.021,-0.003,0.0217,0.0022,11.2
1.683,-0.0218,-0.0015,0.024,0.0022,11.1
1.684,-0.021,-0.0038,0.0217,0.0022,11.0
1.685,-0.0195,-0.003,0.018,0.0007,10.9
1.686,-0.0181,-0.0015,0.0142,0.0015,10.9
1.687,-0.0128,-0.0046,0.0157,0.003,10.8
1.688,-0.0068,-0.0015,0.0067,0.0015,10.7
1.689,-0.0015,-0.0008,0.0052,0.0022,10.7
1.69,-0.0015,-0.003,0.0105,0.003,10.6
1.691,-0.0046,-0.0008,0.0067,0.003,10.5
1.692,-0.0053,0.0007,0.0082,0.0052,10.4
1.693,-0.006,-0.0015,0.0075,0.0052,10.4
1.694,-0.0038,-0.0008,0.0075,0.0022,10.3
1.695,0.0037,-0.0015,0.0067,-0.0008,10.3
1.696,0.0112,-0.0015,0.012,-0.003,10.2
1.697,0.0165,-0.003,0.021,-0.0046,10.1
1.698,0.0202,-0.0015,0.0217,-0.0008,10.0
1.699,0.0202,-0.0008,0.0217,0.0022,10.0
1.7,0.0217,0.0,0.0165,-0.0008,9.9
1.701,0.0195,0.0037,0.0067,-0.0128,9.9
1.702,0.0135,0.0052,-0.0023,-0.0285,9.8
1.703,0.0075,0.0045,-0.0091,-0.0383,9.8
1.704,0.003,0.003,-0.0128,-0.0308,9.7
1.705,-0.0015,0.0015,-0.0158,-0.0158,9.6
1.706,-0.006,-0.0008,-0.0181,0.0052,9.6
1.707,-0.0053,0.0007,-0.0188,0.0217,9.5
1.708,-0.0068,-0.0008,-0.0165,0.0217,9.5
1.709,-0.0053,-0.003,-0.0128,0.0187,9.4
1.71,-0.0046,-0.003,-0.0091,0.0217,9.4
1.711,-0.003,-0.0046,-0.0038,0.0195,9.4
1.712,-0.0053,-0.003,-0.0008,0.0015,9.3
1.713,-0.0091,-0.0046,0.0,-0.0053,9.3
1.714,-0.0098,-0.0053,-0.0008,-0.0015,9.2
1.715,-0.0091,-0.003,-0.0083,-0.0046,9.1
1.716,-0.0068,-0.0023,-0.0098,-0.003,9.1
1.717,-0.0053,0.0,-0.0015,-0.003,9.0
1.718,-0.0015,0.0,0.0037,-0.0008,9.0
1.719,-0.0075,-0.0023,0.009,0.0,9.0
1.72,-0.0135,-0.003,0.0157,-0.0008,8.9
1.721,-0.0181,-0.0008,0.0255,0.003,8.9
1.722,-0.012,-0.0015,0.0345,0.0022,8.9
1.723,0.0,-0.0046,0.0412,0.0045,9.0
1.724,-0.0053,-0.0046,0.0472,0.0067,9.0
1.725,-0.0015,-0.003,0.042,0.0067,9.0
1.726,0.0,-0.0015,0.0367,0.0067,9.0
1.727,-0.0046,-0.0053,0.0375,0.0067,9.0
1.728,-0.0046,-0.0038,0.0367,0.0082,9.0
1.729,-0.0046,-0.0008,0.0367,0.009,9.1
1.73,0.0007,-0.0015,0.039,0.0105,9.1
1.731,-0.003,-0.0091,0.0337,0.0067,9.1
1.732,-0.0091,-0.0143,0.0277,0.0067,9.1
1.733,-0.0105,-0.0091,0.0255,0.0082,9.2
1.734,-0.0091,-0.0068,0.0142,0.006,9.2
1.735,-0.0091,-0.0053,0.0067,0.0067,9.2
1.736,-0.0053,-0.0023,0.0,0.0045,9.2
1.737,-0.0015,-0.0046,-0.0083,0.0037,9.2
1.738,-0.003,-0.0068,-0.0105,0.003,9.3
1.739,-0.0015,-0.003,-0.012,0.003,9.3
1.74,0.0,-0.0008,-0.0098,0.0045,9.3
1.741,0.0007,0.0007,-0.0105,0.003,9.3
1.742,0.0045,0.0045,-0.0143,0.0022,9.4
1.743,0.0105,0.006,-0.0173,0.0007,9.4
1.744,0.0165,0.0052,-0.021,0.0015,9.4
1.745,0.0142,0.0052,-0.0218,0.0015,9.4
1.746,0.0082,0.0052,-0.0203,-0.0008,9.4
1.747,0.0097,0.006,-0.0233,-0.0008,9.4
1.748,0.0165,0.0067,-0.024,-0.0015,9.4
1.749,0.0187,0.0082,-0.027,-0.0008,9.4
1.75,0.012,0.0082,-0.0308,0.0,9.5
1.751,0.0045,0.0067,-0.0285,-0.0008,9.5
1.752,0.006,0.0052,-0.0308,-0.0015,9.5
1.753,0.0127,0.003,-0.0368,-0.003,9.5
1.754,0.027,0.0037,-0.042,-0.003,9.5
1.755,0.033,0.006,-0.0495,-0.0046,9.5
1.756,0.0307,0.0067,-0.0518,-0.003,9.6
1.757,0.0277,0.006,-0.0503,-0.0038,9.6
1.758,0.021,0.0075,-0.048,-0.0038,9.6
1.759,0.0157,0.009,-0.0428,-0.003,9.6
1.76,0.0015,0.006,-0.0383,-0.0023,9.6
1.761,-0.0105,0.0037,-0.024,0.0015,9.6
1.762,-0.0143,0.0007,-0.0165,0.0022,9.6
1.763,-0.0165,0.0007,-0.0113,0.0015,9.6
1.764,-0.0188,-0.0015,-0.0083,0.0015,9.6
1.765,-0.0218,-0.0008,-0.0105,-0.0008,9.6
1.766,-0.0203,0.0007,-0.006,-0.0008,9.6
1.767,-0.0113,-0.0015,0.009,0.0045,9.6
1.768,-0.0068,-0.003,0.0292,0.0052,9.6
1.769,-0.0083,-0.006,0.0375,0.0045,9.5
1.77,-0.0105,-0.0053,0.0367,0.0045,9.5
1.771,-0.0083,-0.0023,0.0165,-0.0023,9.5
1.772,0.0045,0.0,-0.0015,-0.003,9.5
1.773,0.003,-0.0008,0.0045,-0.0008,9.5
1.774,0.0007,-0.0015,-0.0091,-0.0075,9.5
1.775,0.0082,0.003,-0.0218,-0.0091,9.4
1.776,0.0142,0.0022,-0.0181,-0.0091,9.4
1.777,0.0195,0.0022,-0.015,-0.0098,9.4
1.778,0.0172,0.0007,-0.0053,-0.0091,9.4
1.779,0.0157,0.0007,-0.0053,-0.0083,9.4
1.78,0.0105,0.0015,-0.0053,-0.006,9.4
1.781,0.0052,0.0015,-0.0098,-0.0053,9.4
1.782,0.0067,0.0052,-0.0203,-0.0046,9.4
1.783,0.0127,0.009,-0.0308,-0.0075,9.4
1.784,0.0172,0.0105,-0.0443,-0.0135,9.3
1.785,0.021,0.0127,-0.054,-0.0143,9.3
1.786,0.021,0.0105,-0.0548,-0.0143,9.3
1.787,0.0127,0.0045,-0.0495,-0.0128,9.3
1.788,0.0105,0.0045,-0.0495,-0.0105,9.2
1.789,0.0142,0.0067,-0.0495,-0.0083,9.2
1.79,0.0135,0.0052,-0.0495,-0.006,9.2
1.791,0.009,0.003,-0.042,-0.006,9.2
1.792,0.0045,0.003,-0.0405,-0.006,9.2
1.793,0.0045,0.0037,-0.0368,-0.0038,9.1
1.794,0.003,-0.0008,-0.0225,-0.0015,9.1
1.795,-0.0008,-0.0038,-0.0165,0.0,9.1
1.796,-0.003,-0.0015,-0.0143,0.0,9.1
1.797,-0.0015,0.0,-0.0158,-0.0015,9.0
1.798,-0.0015,-0.0008,-0.012,-0.0015,9.0
1.799,-0.0008,-0.0015,-0.0105,-0.0015,9.0
1.8,0.0,0.0015,-0.0143,-0.0008,9.0
1.801,0.0015,0.006,-0.0218,-0.003,9.0
1.802,0.0082,0.0052,-0.0233,-0.0046,9.0
1.803,0.0052,0.003,-0.0135,-0.0015,8.9
1.804,0.0015,0.0015,-0.0181,-0.0015,8.9
1.805,0.003,0.0007,-0.0195,-0.003,8.9
1.806,0.006,0.0007,-0.0195,-0.0023,8.8
1.807,0.009,0.0045,-0.0248,-0.0038,8.8
1.808,0.0105,0.0045,-0.0225,-0.0046,8.8
1.809,0.0105,0.0052,-0.0195,-0.0053,8.8
1.81,0.006,0.0045,-0.0143,-0.0053,8.7
1.811,0.0015,0.0045,-0.0105,-0.0038,8.7
1.812,0.0007,0.0045,-0.0098,-0.0015,8.7
1.813,0.0,0.003,-0.0091,-0.0023,8.6
1.814,-0.0008,0.0045,-0.0083,-0.003,8.6
1.815,-0.0015,0.0045,-0.0083,-0.0046,8.6
1.816,0.0015,0.0037,-0.0105,-0.003,8.5
1.817,0.0015,0.0045,-0.0075,-0.0008,8.5
1.818,-0.0015,0.003,-0.003,0.0,8.5
1.819,-0.0015,0.0,0.0045,0.0007,8.5
1.82,-0.0015,-0.0023,0.0127,0.003,8.4
1.821,-0.0038,-0.0053,0.0195,0.0052,8.4
1.822,-0.0068,-0.0068,0.024,0.0045,8.4
1.823,-0.0113,-0.0068,0.0345,0.006,8.4
1.824,-0.0165,-0.0091,0.045,0.0082,8.4
1.825,-0.0218,-0.0105,0.0555,0.0097,8.3
1.826,-0.0233,-0.0113,0.066,0.012,8.3
1.827,-0.0218,-0.0128,0.0727,0.0112,8.3
1.828,-0.024,-0.0143,0.0802,0.0157,8.3
1.829,-0.0256,-0.0143,0.0825,0.0127,8.2
1.83,-0.027,-0.0165,0.0862,0.012,8.2
1.831,-0.0308,-0.0181,0.0885,0.0127,8.2
1.832,-0.03,-0.0181,0.0802,0.0105,8.1
1.833,-0.0293,-0.0181,0.078,0.012,8.1
1.834,-0.027,-0.0143,0.078,0.0097,8.1
1.835,-0.0256,-0.0135,0.0772,0.009,8.1
1.836,-0.0256,-0.0143,0.0825,0.0097,8.1
1.837,-0.0233,-0.015,0.0862,0.009,8.1
1.838,-0.024,-0.0165,0.0922,0.0112,8.0
1.839,-0.0248,-0.0181,0.099,0.012,8.0
1.84,-0.0256,-0.0195,0.105,0.0142,7.9
1.841,-0.0293,-0.0203,0.1155,0.0157,7.9
1.842,-0.033,-0.0203,0.1177,0.0157,7.9
1.843,-0.0323,-0.0203,0.1177,0.0157,7.9
1.844,-0.03,-0.0181,0.1185,0.0157,7.8
1.845,-0.0308,-0.0181,0.114,0.0135,7.8
1.846,-0.027,-0.0158,0.105,0.012,7.8
1.847,-0.0248,-0.0128,0.093,0.0105,7.7
1.848,-0.0225,-0.012,0.078,0.0082,7.7
1.849,-0.0195,-0.0113,0.069,0.0052,7.7
1.85,-0.0165,-0.0113,0.0562,0.003,7.6
1.851,-0.0113,-0.0083,0.0427,0.003,7.6
1.852,-0.0068,-0.0046,0.033,0.0,7.6
1.853,0.0,-0.0038,0.0232,-0.0023,7.6
1.854,0.0022,0.0007,0.015,-0.0046,7.6
1.855,0.0052,0.003,0.0045,-0.0053,7.5
1.856,0.0075,0.0022,-0.003,-0.0053,7.5
1.857,0.009,0.0045,-0.0105,-0.006,7.5
1.858,0.0127,0.0052,-0.021,-0.0075,7.4
1.859,0.0142,0.0067,-0.0346,-0.0083,7.4
1.86,0.015,0.0067,-0.0278,-0.003,7.3
1.861,0.0097,0.003,-0.0143,-0.0008,7.3
1.862,0.0082,0.0052,-0.0285,-0.0046,7.3
1.863,0.0067,0.006,-0.0361,-0.006,7.3
1.864,0.0052,0.009,-0.048,-0.0075,7.2
1.865,0.0127,0.0127,-0.0585,-0.0083,7.2
1.866,0.0105,0.0112,-0.0615,-0.0068,7.2
1.867,0.0135,0.0127,-0.0728,-0.0105,7.2
1.868,0.0202,0.0105,-0.0788,-0.0128,7.1
1.869,0.0255,0.0097,-0.0795,-0.0105,7.1
1.87,0.03,0.0097,-0.0728,-0.0105,7.0
1.871,0.0352,0.0105,-0.0743,-0.0105,7.0
1.872,0.042,0.012,-0.0653,-0.0091,7.0
1.873,0.0435,0.0097,-0.06,-0.0091,6.9
1.874,0.0465,0.0082,-0.0578,-0.0098,6.9
1.875,0.0412,0.0097,-0.0503,-0.0091,6.9
1.876,0.0412,0.0142,-0.0563,-0.0091,6.8
1.877,0.045,0.0187,-0.0495,-0.0091,6.8
1.878,0.0442,0.0157,-0.0458,-0.0098,6.7
1.879,0.0367,0.0082,-0.0458,-0.0105,6.7
1.88,0.0255,0.0067,-0.0465,-0.0113,6.7
1.881,0.0172,0.009,-0.0518,-0.0098,6.7
1.882,0.009,0.0067,-0.0533,-0.0068,6.7
1.883,0.0037,0.0067,-0.0511,-0.0053,6.6
1.884,0.0022,0.006,-0.0518,-0.0046,6.6
1.885,0.003,0.0067,-0.0495,-0.0053,6.6
1.886,-0.0015,0.0067,-0.042,-0.0046,6.5
1.887,-0.0091,0.0045,-0.0368,-0.0046,6.5
1.888,-0.012,0.003,-0.0315,-0.0046,6.5
1.889,-0.0083,0.0022,-0.033,-0.0046,6.4
1.89,-0.0038,0.0022,-0.033,-0.0038,6.4
1.891,0.0007,0.0052,-0.03,-0.0015,6.4
1.892,0.0007,0.0052,-0.0218,0.0007,6.3
1.893,-0.0015,0.003,-0.0165,0.0007,6.3
1.894,0.0,0.0022,-0.0203,0.0007,6.3
1.895,0.0022,0.003,-0.0218,0.0,6.3
1.896,0.006,0.003,-0.0188,0.0007,6.3
1.897,0.003,0.0007,-0.0113,0.003,6.2
1.898,0.0,0.0007,-0.012,0.0022,6.2
1.899,0.0015,-0.0008,-0.0128,0.0,6.2
1.9,0.0037,-0.0015,-0.0135,-0.0008,6.1
1.901,0.0015,-0.0008,-0.0105,0.0015,6.1
1.902,-0.0015,-0.0008,-0.0091,0.0,6.1
1.903,0.0022,0.0022,-0.0158,-0.0015,6.0
1.904,0.0045,0.0045,-0.0165,-0.0008,6.0
1.905,0.0045,0.003,-0.0135,-0.0015,6.0
1.906,0.0,0.0022,-0.0068,-0.0008,6.0
1.907,-0.0023,0.0022,-0.0046,-0.0023,6.0
1.908,-0.003,0.0007,-0.0023,-0.0015,5.9
1.909,-0.0015,0.0007,0.006,0.0,5.9
1.91,-0.0015,0.0007,0.0082,-0.0008,5.9
1.911,-0.0046,0.0007,0.0112,0.0,5.9
1.912,-0.0046,0.0,0.0127,0.003,5.8
1.913,-0.0053,-0.0008,0.0105,0.0007,5.8
1.914,-0.0053,0.0015,0.009,-0.0008,5.8
1.915,-0.0023,0.0007,0.009,-0.0008,5.8
1.916,-0.003,-0.0008,0.012,-0.0008,5.8
1.917,-0.0053,-0.0015,0.0112,0.0,5.8
1.918,-0.0046,-0.0023,0.0045,-0.0015,5.7
1.919,-0.003,-0.0015,0.0,-0.0008,5.7
1.92,-0.0015,-0.0015,0.0007,-0.0015,5.6
1.921,-0.0008,-0.0008,0.0,-0.0023,5.6
1.922,0.0007,0.0007,-0.0023,-0.0023,5.6
1.923,0.003,0.0007,-0.0038,-0.0023,5.6
1.924,0.0007,-0.0008,-0.0008,-0.0023,5.6
1.925,0.0007,0.0,0.0022,-0.003,5.6
1.926,0.0007,-0.0023,0.006,0.0,5.6
1.927,-0.0023,-0.006,0.0075,0.0007,5.6
1.928,-0.0038,-0.0046,0.0067,-0.0008,5.5
1.929,-0.0046,-0.0053,0.0052,0.0007,5.5
1.93,-0.0053,-0.006,0.0075,-0.0008,5.5
1.931,-0.0015,-0.003,0.0067,-0.0023,5.5
1.932,-0.0023,-0.0038,0.0075,-0.0008,5.5
1.933,-0.0023,-0.003,0.0105,0.0,5.4
1.934,-0.0015,-0.003,0.006,0.0015,5.4
1.935,-0.0015,-0.0023,0.0052,0.0007,5.4
1.936,0.0,-0.0015,0.0075,0.0007,5.4
1.937,0.0,-0.0015,0.0082,0.0015,5.4
1.938,0.0,-0.0023,0.0052,0.0,5.4
1.939,-0.0023,-0.0015,0.0045,-0.0008,5.3
1.94,-0.0015,-0.0023,0.0052,0.0,5.3
1.941,0.0007,-0.0015,0.0045,0.0,5.3
1.942,0.0007,-0.0015,0.0067,-0.0008,5.3
1.943,-0.0008,-0.003,0.0105,0.0022,5.3
1.944,-0.0053,-0.0038,0.0202,0.0045,5.3
1.945,-0.0068,-0.0053,0.024,0.0052,5.3
1.946,-0.0083,-0.0068,0.0255,0.0052,5.3
1.947,-0.0105,-0.006,0.0255,0.0037,5.3
1.948,-0.0105,-0.006,0.0217,0.003,5.2
1.949,-0.0083,-0.0053,0.0187,0.003,5.2
1.95,-0.0053,-0.0038,0.015,0.003,5.2
1.951,-0.003,-0.0053,0.0165,0.0022,5.2
1.952,-0.0015,-0.003,0.0105,-0.0008,5.2
1.953,0.0,-0.0015,0.0075,0.0,5.1
1.954,-0.003,-0.003,0.0187,0.0022,5.1
1.955,-0.006,-0.0015,0.015,0.0015,5.1
1.956,-0.003,0.0015,0.0022,-0.0008,5.1
1.957,0.0007,0.0022,0.0067,0.0015,5.1
1.958,-0.0038,-0.0015,0.018,0.0052,5.1
1.959,-0.0083,-0.0046,0.0187,0.0022,5.0
1.96,-0.0038,-0.0015,0.0142,0.0007,5.0
1.961,0.0,-0.003,0.0157,0.003,5.0
1.962,-0.0015,-0.003,0.0157,0.0045,5.0
1.963,-0.0015,-0.003,0.0187,0.0045,4.9
1.964,-0.003,-0.0038,0.0142,0.003,4.9
1.965,-0.0008,-0.0015,0.0082,0.0015,4.9
1.966,-0.0008,-0.0008,0.0045,0.0015,4.9
1.967,-0.0038,-0.0015,0.0015,0.003,4.9
1.968,-0.0015,-0.0015,0.0,0.003,4.9
1.969,-0.0008,0.0007,-0.0083,0.0015,4.8
1.97,0.003,0.0045,-0.0181,-0.003,4.8
1.971,0.0127,0.0067,-0.0383,-0.0068,4.8
1.972,0.0187,0.0082,-0.0428,-0.0091,4.7
1.973,0.0142,0.0052,-0.0225,-0.0046,4.7
1.974,0.009,0.003,-0.0091,-0.0023,4.7
1.975,0.006,0.0007,0.0037,-0.0015,4.7
1.976,0.0007,-0.0008,0.0142,0.0015,4.6
1.977,-0.0046,-0.003,0.0172,0.003,4.6
1.978,-0.0083,-0.003,0.0232,0.0037,4.6
1.979,-0.012,-0.0053,0.0262,0.0045,4.6
1.98,-0.012,-0.0053,0.0217,0.0037,4.5
1.981,-0.0105,-0.0046,0.0195,0.0045,4.5
1.982,-0.0105,-0.0068,0.021,0.0067,4.5
1.983,-0.0091,-0.0046,0.0142,0.006,4.5
1.984,-0.0046,-0.0015,0.0067,0.003,4.5
1.985,-0.0008,-0.0023,0.009,0.0022,4.5
1.986,0.0007,-0.0008,0.0045,0.003,4.4
1.987,0.0052,0.0015,-0.0083,-0.0015,4.4
1.988,0.0075,0.003,-0.0165,-0.0038,4.4
1.989,0.006,0.0015,-0.0165,-0.003,4.4
1.99,0.0067,0.0007,-0.0165,-0.003,4.3
1.991,0.0067,0.003,-0.0195,-0.003,4.3
1.992,0.0082,0.0022,-0.0128,-0.0015,4.3
1.993,0.0052,0.0007,-0.0053,0.0007,4.3
1.994,0.0015,0.0015,-0.0053,0.0,4.3
1.995,0.003,0.0007,-0.006,0.0,4.2
1.996,-0.0008,-0.0008,-0.003,0.0007,4.2
1.997,-0.0023,0.0015,-0.0008,-0.0008,4.2
1.998,-0.0008,0.0,0.0007,0.003,4.2
1.999,-0.003,-0.0008,0.0022,0.003,4.1
2.0,-0.0008,0.0037,-0.003,-0.0008,4.1
2.001,0.0007,0.0045,-0.0046,-0.0008,4.1
2.002,0.0007,0.006,-0.0075,-0.0023,4.1
2.003,0.0052,0.0045,-0.0098,-0.0023,4.1
2.004,0.0045,0.0007,-0.0091,-0.0015,4.0
2.005,0.0045,0.0022,-0.0105,-0.0015,4.0
2.006,0.0045,0.0015,-0.0083,-0.0008,4.0
2.007,0.0015,0.0015,-0.006,-0.0015,4.0
2.008,0.0022,0.0015,-0.003,0.0007,4.0
2.009,-0.0008,0.0007,0.0015,0.0037,4.0
2.01,-0.0023,-0.0008,0.006,0.0037,3.9
2.011,-0.0008,-0.0038,0.0075,0.0015,3.9
2.012,-0.0015,-0.003,0.0075,0.0,3.9
2.013,-0.0015,-0.0015,0.0075,-0.0008,3.9
2.014,-0.0015,0.0007,0.003,-0.0015,3.9
2.015,0.0007,0.003,-0.0068,-0.0038,3.8
2.016,0.0045,0.003,-0.0143,-0.003,3.8
2.017,0.0052,0.0015,-0.015,-0.0023,3.8
2.018,0.006,0.0007,-0.021,-0.0046,3.8
2.019,0.009,0.0037,-0.021,-0.0046,3.7
2.02,0.0097,0.003,-0.0203,-0.003,3.7
2.021,0.0082,0.0015,-0.0218,-0.0015,3.7
2.022,0.0075,0.006,-0.0218,-0.0046,3.7
2.023,0.009,0.0052,-0.024,-0.0046,3.7
2.024,0.0097,0.0037,-0.0203,-0.0046,3.6
2.025,0.0082,0.0045,-0.0181,-0.003,3.6
2.026,0.0105,0.003,-0.0158,-0.0023,3.6
2.027,0.0067,0.003,-0.0083,-0.0008,3.6
2.028,0.003,0.003,-0.0075,-0.0015,3.6
2.029,0.0022,0.0007,-0.0053,-0.0023,3.6
2.03,-0.0008,0.0,-0.0008,-0.0008,3.5
2.031,0.0007,0.0015,0.0,0.0007,3.5
2.032,0.0015,0.0015,-0.0008,0.0,3.5
2.033,0.003,0.0007,-0.0068,-0.0008,3.5
2.034,0.003,0.003,-0.0128,-0.003,3.5
2.035,0.0037,0.0015,-0.0128,-0.0008,3.4
2.036,0.0045,0.0,-0.012,-0.0015,3.4
2.037,0.0015,0.0015,-0.0128,-0.0015,3.4
2.038,0.0045,0.0015,-0.0165,-0.0008,3.4
2.039,0.0045,0.0015,-0.0158,-0.0008,3.3
2.04,0.0022,0.0015,-0.0128,0.0007,3.3
2.041,0.0015,0.0007,-0.012,-0.0008,3.3
2.042,-0.0015,0.0015,-0.0098,-0.0015,3.3
2.043,-0.0008,0.0007,-0.0105,0.0,3.3
2.044,-0.0008,0.0007,-0.0053,0.0015,3.3
2.045,-0.0015,0.0,-0.0015,0.0015,3.3
2.046,-0.0015,0.0007,0.0007,0.0,3.3
2.047,-0.0015,0.0,0.0007,-0.0008,3.2
2.048,0.0007,0.0007,0.0,-0.0008,3.2
2.049,-0.003,0.0,0.003,0.0,3.2
2.05,-0.0023,-0.0015,0.0052,0.0,3.2
2.051,-0.0015,-0.0015,0.0082,0.0,3.2
2.052,-0.0015,-0.0023,0.0082,0.0007,3.2
2.053,-0.0023,-0.003,0.0082,0.0022,3.2
2.054,-0.0053,-0.0038,0.0097,0.0015,3.1
2.055,-0.003,-0.0046,0.0082,0.0007,3.1
2.056,-0.0046,-0.0053,0.0105,0.0015,3.1
2.057,-0.0046,-0.0053,0.0105,0.003,3.1
2.058,-0.0053,-0.0053,0.0142,0.003,3.1
2.059,-0.006,-0.0053,0.0165,0.0015,3.1
2.06,-0.0046,-0.0038,0.0142,0.0007,3.1
2.061,-0.0053,-0.0038,0.0157,0.0007,3.1
2.062,-0.0053,-0.0038,0.0165,0.0015,3.1
2.063,-0.006,-0.0046,0.015,0.0007,3.1
2.064,-0.0038,-0.0053,0.0142,-0.0008,3.1
2.065,0.0,-0.0053,0.0135,-0.0015,3.1
2.066,-0.0008,-0.0046,0.0142,-0.0015,3.1
2.067,-0.0015,-0.003,0.0135,-0.003,3.1
2.068,0.0015,-0.0008,0.0082,-0.0046,3.1
2.069,0.0037,0.0,0.003,-0.0046,3.1
2.07,0.0075,0.0015,-0.003,-0.0053,3.1
2.071,0.0097,0.003,-0.0128,-0.0068,3.1
2.072,0.0067,0.0007,-0.0053,-0.003,3.1
2.073,0.0015,-0.0015,0.003,0.0007,3.1
2.074,0.0015,-0.0015,0.003,0.0007,3.1
2.075,-0.0008,-0.003,0.0165,0.003,3.1
2.076,-0.0046,-0.0023,0.0142,0.0015,3.1
2.077,-0.0053,-0.0023,0.0135,0.003,3.1
2.078,-0.0091,-0.003,0.0202,0.006,3.1
2.079,-0.0075,-0.0023,0.0172,0.006,3.1
2.08,-0.0083,-0.0015,0.0202,0.006,3.1
2.081,-0.0068,-0.0023,0.0195,0.003,3.1
2.082,-0.003,-0.003,0.0142,0.0022,3.1
2.083,-0.0046,-0.003,0.0157,0.0015,3.1
2.084,-0.003,-0.006,0.018,0.0022,3.1
2.085,-0.003,-0.0038,0.0142,0.003,3.1
2.086,-0.003,-0.0008,0.012,0.003,3.2
2.087,-0.0038,-0.0008,0.0082,0.0037,3.2
2.088,-0.0015,0.0015,0.0052,0.0037,3.2
2.089,0.0007,0.0007,0.0067,0.003,3.2
2.09,0.0,0.0015,0.0037,0.0022,3.3
2.091,-0.0008,0.0,0.0082,0.0015,3.3
2.092,-0.0015,0.0,0.0112,0.0,3.3
2.093,-0.0023,0.0007,0.009,-0.0015,3.3
2.094,-0.003,-0.0015,0.009,0.0,3.3
2.095,-0.003,-0.0015,0.0082,0.003,3.4
2.096,-0.003,-0.0038,0.0105,0.0007,3.4
2.097,-0.003,-0.0038,0.0105,0.0007,3.4
2.098,-0.003,-0.0008,0.0082,0.003,3.4
2.099,-0.0008,-0.0008,0.006,0.0007,3.5
2.1,-0.0015,-0.0015,0.0037,-0.0008,3.5
2.101,-0.0015,-0.003,-0.0008,-0.0015,3.5
2.102,0.0015,0.0,-0.0008,-0.0023,3.6
2.103,0.0,0.0,-0.0015,-0.0023,3.6
2.104,0.0022,-0.0015,-0.006,-0.0038,3.6
2.105,0.0045,-0.0008,-0.006,-0.0046,3.7
2.106,0.0015,-0.0008,-0.0068,-0.006,3.7
2.107,0.003,0.0007,-0.0046,-0.0075,3.8
2.108,0.003,0.0015,-0.0008,-0.006,3.8
2.109,0.003,0.0,0.003,-0.0053,3.9
2.11,0.0015,-0.0023,0.0105,-0.0053,3.9
2.111,-0.003,-0.0023,0.012,-0.003,3.9
2.112,-0.0023,0.0,0.0097,-0.0015,4.0
2.113,-0.003,0.0007,0.003,-0.0015,4.0
2.114,-0.0008,0.0007,-0.003,-0.003,4.0
2.115,-0.0008,0.0015,-0.0008,-0.0038,4.1
2.116,-0.0008,0.0,0.0015,-0.0008,4.1
2.117,-0.003,0.0007,0.0,-0.0008,4.2
2.118,-0.0015,0.0007,-0.0053,-0.0023,4.2
2.119,0.003,0.003,-0.0128,-0.0015,4.3
2.12,0.0045,0.0015,-0.0135,-0.003,4.3
2.121,0.006,0.0,-0.0143,-0.0015,4.4
2.122,0.0052,0.0007,-0.0165,-0.003,4.4
2.123,0.0052,0.0007,-0.015,-0.0046,4.5
2.124,0.0007,-0.0008,-0.0105,-0.0015,4.5
2.125,-0.0015,0.0,-0.0068,-0.0015,4.6
2.126,-0.0008,-0.0008,-0.006,-0.0008,4.6
2.127,-0.003,-0.0015,-0.0046,-0.0008,4.7
2.128,-0.0023,-0.0015,-0.003,0.0007,4.8
2.129,-0.003,-0.0015,-0.0023,0.0015,4.8
2.13,-0.0008,-0.0015,-0.0038,0.0015,4.9
2.131,-0.0008,-0.0023,-0.0015,0.003,4.9
2.132,-0.003,-0.0015,-0.0053,0.0,5.0
2.133,0.0037,0.0015,-0.012,-0.0008,5.0
2.134,0.0045,0.0007,-0.0091,0.0007,5.1
2.135,0.0052,0.0007,-0.0053,0.0,5.2
2.136,0.009,0.0037,-0.0008,0.0022,5.2
2.137,0.0105,0.006,-0.0008,0.003,5.3
2.138,0.015,0.0105,-0.003,0.003,5.3
2.139,0.018,0.0127,-0.0053,0.003,5.4
2.14,0.018,0.0097,-0.0105,-0.0008,5.4
2.141,0.0157,0.0052,-0.0098,-0.0008,5.5
2.142,0.0112,0.0007,-0.0068,-0.003,5.6
2.143,0.0067,0.0,-0.0053,-0.0046,5.6
2.144,0.0045,0.0,-0.0181,-0.0083,5.7
2.145,0.0105,0.0037,-0.0405,-0.0113,5.8
2.146,0.0157,0.0075,-0.0405,-0.0068,5.8
2.147,0.009,0.0022,-0.0165,-0.0015,5.9
2.148,-0.0008,-0.003,0.0022,0.0015,6.0
2.149,-0.0068,-0.0053,0.0142,0.0037,6.0
2.15,-0.012,-0.0068,0.0202,0.0045,6.1
2.151,-0.0143,-0.006,0.0232,0.006,6.2
2.152,-0.0128,-0.0083,0.0277,0.0075,6.2
2.153,-0.0143,-0.0083,0.0255,0.0067,6.3
2.154,-0.0135,-0.0068,0.0232,0.0045,6.3
2.155,-0.0105,-0.0075,0.0202,0.003,6.4
2.156,-0.0091,-0.0053,0.0157,0.0007,6.5
2.157,-0.0091,-0.0038,0.009,0.0007,6.6
2.158,-0.0091,-0.0053,0.0082,0.0007,6.6
2.159,-0.0083,-0.0038,0.0045,-0.0008,6.7
2.16,-0.0053,-0.0015,0.0007,-0.0015,6.7
2.161,-0.0015,0.0007,-0.0008,-0.0038,6.8
2.162,0.0007,0.0007,-0.0046,-0.0023,6.9
2.163,0.0007,0.0,-0.0038,-0.0023,7.0
2.164,0.0022,0.0007,-0.0105,-0.003,7.0
2.165,0.0007,0.0015,-0.012,-0.0015,7.1
2.166,0.0015,0.003,-0.012,-0.003,7.2
2.167,0.0037,0.0037,-0.0165,-0.0015,7.2
2.168,0.0022,0.003,-0.0203,-0.003,7.3
2.169,0.006,0.0045,-0.0225,-0.0046,7.4
2.17,0.0082,0.0022,-0.0218,-0.0053,7.5
2.171,0.0082,0.003,-0.0225,-0.0053,7.6
2.172,0.009,0.0045,-0.0203,-0.003,7.6
2.173,0.0075,0.0052,-0.0195,-0.003,7.7
2.174,0.0067,0.0052,-0.0203,-0.0046,7.7
2.175,0.0067,0.003,-0.0218,-0.0053,7.8
2.176,0.0052,0.003,-0.015,-0.0053,7.9
2.177,0.0007,0.0007,-0.0053,-0.0053,8.0
2.178,-0.0023,-0.0008,-0.0038,-0.0046,8.1
2.179,-0.0046,-0.0015,-0.0015,-0.003,8.1
2.18,-0.0053,-0.003,0.003,-0.0023,8.2
2.181,-0.0046,-0.003,0.0022,-0.003,8.3
2.182,-0.003,-0.003,0.0,-0.0023,8.4
2.183,-0.003,-0.0023,0.0,0.0007,8.5
2.184,-0.0015,-0.0046,-0.003,0.0,8.5
2.185,0.0022,-0.006,-0.006,0.0015,8.6
2.186,0.003,-0.003,-0.0083,0.0015,8.7
2.187,0.0007,-0.0015,-0.0083,-0.0008,8.8
2.188,0.0022,0.0007,-0.0068,-0.0008,8.9
2.189,0.003,0.003,-0.0015,-0.0008,9.0
2.19,0.0015,0.0037,0.0075,0.0015,9.1
2.191,0.0052,0.006,0.0082,0.003,9.2
2.192,0.0052,0.0052,0.0105,0.003,9.3
2.193,0.0015,0.0015,0.009,0.0015,9.4
2.194,0.0015,-0.0008,0.0015,0.0,9.4
2.195,-0.0008,-0.0008,0.0007,0.0,9.5
2.196,-0.0008,0.0,-0.0046,-0.0008,9.6
2.197,0.0,0.0,-0.0098,-0.0008,9.7
2.198,0.0007,-0.0023,-0.0128,-0.0038,9.8
2.199,0.0045,-0.0015,-0.0173,-0.006,9.9
2.2,0.0052,0.0007,-0.021,-0.0053,10.0
2.201,0.0067,0.0022,-0.0203,-0.0046,10.1
2.202,0.0082,0.003,-0.0218,-0.003,10.2
2.203,0.0067,0.0052,-0.027,-0.0015,10.3
2.204,0.0105,0.0067,-0.03,-0.0023,10.4
2.205,0.0105,0.0045,-0.033,-0.003,10.6
2.206,0.009,0.0015,-0.0293,-0.0046,10.7
2.207,0.012,0.0,-0.0293,-0.0046,10.8
2.208,0.009,-0.0015,-0.0293,-0.0015,10.9
2.209,0.0067,-0.003,-0.0188,0.0007,11.0
2.21,0.0037,-0.003,-0.0135,0.0022,11.2
2.211,0.0045,-0.0046,-0.0143,0.003,11.2
2.212,0.0015,-0.0053,-0.0083,0.0045,11.4
2.213,-0.0038,-0.003,-0.0068,0.0022,11.5
2.214,0.0,-0.0008,-0.0158,-0.0015,11.6
2.215,0.003,0.0015,-0.0143,-0.0015,11.7
2.216,0.003,0.0052,-0.0091,-0.0015,11.8
2.217,0.0037,0.0105,-0.0046,0.0,11.9
2.218,0.0007,0.0105,0.0007,0.0,12.1
2.219,-0.003,0.0067,0.0037,-0.0008,12.1
2.22,-0.0068,0.003,0.0105,0.0022,12.3
2.221,-0.0083,0.0015,0.0097,0.0015,12.4
2.222,-0.006,0.0015,0.009,0.0007,12.6
2.223,-0.006,-0.0015,0.0187,0.0022,12.7
2.224,-0.0068,-0.003,0.024,0.0022,12.9
2.225,-0.0098,-0.0046,0.0292,0.0052,13.0
2.226,-0.0098,-0.0046,0.0345,0.0075,13.1
2.227,-0.0091,-0.006,0.033,0.0052,13.3
2.228,-0.0098,-0.0075,0.0315,0.0045,13.5
2.229,-0.0091,-0.0053,0.0345,0.0052,13.6
2.23,-0.0091,-0.0053,0.0405,0.009,13.8
2.231,-0.0068,-0.0046,0.0435,0.012,13.9
2.232,-0.0068,-0.0053,0.0412,0.009,14.0
2.233,-0.0091,-0.0068,0.039,0.0052,14.2
2.234,-0.0075,-0.0068,0.0367,0.003,14.4
2.235,-0.0091,-0.0075,0.039,0.003,14.5
2.236,-0.0105,-0.0068,0.042,0.0022,14.6
2.237,-0.0091,-0.0068,0.039,0.0045,14.8
2.238,-0.0091,-0.0053,0.0397,0.0045,14.9
2.239,-0.0083,-0.003,0.0367,0.003,15.1
2.24,-0.006,-0.0015,0.024,0.0015,15.2
2.241,-0.0046,-0.0008,0.0082,-0.0015,15.4
2.242,-0.0008,-0.0015,-0.0038,-0.0038,15.6
2.243,0.003,0.0015,-0.0075,-0.0046,15.7
2.244,0.0045,0.0007,-0.0015,-0.0046,15.9
2.245,0.0015,-0.0008,0.0052,-0.0015,16.2
2.246,0.0,-0.0008,0.0007,-0.0008,16.3
2.247,0.0022,0.0007,-0.012,-0.0023,16.5
2.248,0.0045,0.0045,-0.0158,-0.0023,16.7
2.249,0.003,0.0022,-0.0046,0.0,16.9
2.25,0.0022,0.0007,-0.0046,-0.0015,17.0
2.251,0.0045,0.0007,-0.0068,0.0,17.2
2.252,0.0045,-0.0008,0.0,0.0037,17.4
2.253,0.0052,0.0022,-0.0068,0.0015,17.6
2.254,0.0067,-0.0015,0.0067,0.0045,17.8
2.255,0.0015,-0.006,0.0135,0.003,18.0
2.256,0.0015,-0.006,0.006,0.0015,18.2
2.257,0.0007,-0.006,0.003,0.0007,18.4
2.258,0.0015,-0.0008,-0.0105,-0.003,18.5
2.259,0.003,-0.0015,-0.0083,-0.0015,18.7
2.26,0.0015,-0.0015,-0.0091,-0.0038,18.9
2.261,0.0022,0.0007,-0.0083,-0.003,19.1
2.262,-0.0008,0.0022,-0.006,-0.0015,19.3
2.263,-0.0008,0.0045,-0.0128,-0.0038,19.6
2.264,-0.0008,0.003,-0.012,-0.0023,19.8
2.265,0.003,0.003,-0.0113,-0.0038,20.0
2.266,0.003,0.0015,-0.012,-0.0023,20.2
2.267,0.0015,0.0007,-0.0098,-0.0015,20.4
2.268,0.0015,0.0022,-0.0068,-0.003,20.7
2.269,-0.0015,0.0037,-0.0068,-0.0008,20.9
2.27,-0.0008,0.003,-0.0046,-0.0008,21.1
2.271,-0.0008,-0.0008,0.0007,-0.0008,21.3
2.272,-0.0023,-0.0008,0.0022,-0.0008,21.5
2.273,0.0007,-0.0008,0.0015,-0.0015,21.8
2.274,-0.0008,-0.0015,0.0015,0.0,22.0
2.275,0.0,0.0007,0.0007,-0.0008,22.2
2.276,0.0007,0.0015,0.0067,-0.0008,22.4
2.277,-0.0023,0.0007,0.0082,-0.0023,22.6
2.278,0.0,0.0052,0.003,-0.0023,22.9
2.279,0.0007,0.0015,0.0052,-0.0008,23.1
2.28,0.0007,0.0015,0.0,-0.0023,23.3
2.281,0.0007,0.0037,-0.0053,-0.0015,23.6
2.282,0.0007,0.0015,-0.0046,-0.0015,23.8
2.283,0.003,0.0022,-0.006,-0.0015,24.1
2.284,0.0052,0.0007,-0.0075,-0.0023,24.3
2.285,0.0052,-0.0015,-0.0091,-0.0008,24.6
2.286,0.0022,-0.0038,-0.0091,-0.0008,24.8
2.287,0.0037,-0.0038,-0.0098,-0.0015,25.1
2.288,0.003,0.0,-0.012,-0.0015,25.4
2.289,0.0045,0.0007,-0.015,-0.0015,25.6
2.29,0.0045,0.0015,-0.0098,0.0007,25.9
2.291,0.0015,-0.0015,-0.0083,0.0007,26.1
2.292,0.003,-0.0046,-0.0083,-0.0008,26.4
2.293,0.0015,-0.0053,-0.003,-0.0008,26.7
2.294,0.0007,-0.0038,-0.0015,-0.0008,27.0
2.295,0.003,-0.0038,0.003,0.0007,27.2
2.296,0.0022,-0.0046,0.0015,-0.0008,27.4
2.297,0.0037,-0.003,0.0015,-0.0023,27.7
2.298,0.003,-0.003,0.0022,-0.0015,28.0
2.299,0.0015,-0.0008,0.0007,-0.0015,28.2
2.3,0.003,0.003,0.0,-0.003,28.5
2.301,0.0015,0.0037,0.003,-0.003,28.8
2.302,-0.0008,0.003,0.0067,-0.003,29.0
2.303,-0.0015,0.0037,0.006,-0.003,29.2
2.304,-0.0023,0.0022,0.009,-0.0008,29.5
2.305,-0.0015,0.0015,0.0127,0.0,29.7
2.306,-0.0023,0.0007,0.0135,0.0015,30.0
2.307,-0.0038,-0.0015,0.018,0.003,30.2
2.308,-0.0068,-0.0053,0.0262,0.003,30.5
2.309,-0.0105,-0.0083,0.0307,0.003,30.7
2.31,-0.012,-0.0083,0.0315,0.003,31.0
2.311,-0.012,-0.0098,0.0292,0.003,31.2
2.312,-0.0105,-0.0098,0.0277,0.0022,31.5
2.313,-0.0053,-0.0068,0.024,0.003,31.7
2.314,-0.0015,-0.003,0.015,0.0015,32.0
2.315,0.0,-0.0023,0.0127,0.0015,32.2
2.316,-0.003,-0.0023,0.0135,0.0015,32.5
2.317,-0.0053,-0.0023,0.009,-0.0008,32.7
2.318,-0.0046,-0.0023,0.0097,-0.0008,33.0
2.319,-0.0015,0.0,0.0082,-0.0015,33.2
2.32,-0.0015,0.0007,0.0067,-0.0015,33.5
2.321,-0.0015,0.0007,0.0075,-0.0008,33.7
2.322,-0.0015,0.0007,0.0067,0.0007,33.9
2.323,0.0,0.0007,0.003,0.0,34.1
2.324,0.0015,0.0022,-0.0008,-0.0015,34.4
2.325,0.003,0.0022,-0.0046,-0.0008,34.6
2.326,0.0037,0.0022,-0.0008,0.0,34.8
2.327,0.0015,0.0015,0.009,0.0,35.1
2.328,0.0007,0.0015,0.009,-0.0008,35.3
2.329,0.0015,0.0045,0.0067,0.0,35.5
2.33,0.0007,0.0052,0.0067,0.0015,35.7
2.331,-0.0008,0.0022,0.0045,0.003,36.0
2.332,0.0007,0.0015,0.003,0.0045,36.2
2.333,0.0015,0.0007,-0.003,0.0045,36.4
2.334,0.0045,0.0,-0.0075,0.0045,36.6
2.335,0.0067,0.0007,-0.0128,0.0015,36.9
2.336,0.0045,0.0015,-0.0158,0.0015,37.1
2.337,0.0037,0.0,-0.012,0.0015,37.3
2.338,0.0022,-0.0008,-0.0068,0.0,37.5
2.339,0.0015,-0.0008,-0.0046,0.0022,37.8
2.34,0.0,-0.0008,-0.0015,0.0037,38.0
2.341,0.0015,-0.0008,-0.003,0.003,38.2
2.342,0.0022,-0.0008,-0.0083,0.0015,38.3
2.343,0.0015,-0.0015,-0.0075,0.0015,38.6
2.344,0.003,-0.0023,-0.0083,0.0015,38.7
2.345,0.0045,-0.0015,-0.0128,-0.0015,38.9
2.346,0.0052,-0.0008,-0.015,-0.0015,39.1
2.347,0.003,0.0,-0.0158,-0.0038,39.3
2.348,0.003,0.0015,-0.0165,-0.0053,39.5
2.349,0.003,0.0045,-0.0233,-0.006,39.7
2.35,0.0067,0.0052,-0.0285,-0.0083,39.9
2.351,0.009,0.003,-0.0323,-0.0083,40.0
2.352,0.012,0.003,-0.0383,-0.0113,40.2
2.353,0.0157,0.0052,-0.0443,-0.012,40.5
2.354,0.0165,0.0067,-0.0465,-0.012,40.6
2.355,0.018,0.0082,-0.0503,-0.0128,40.8
2.356,0.0172,0.0052,-0.0495,-0.0128,41.0
2.357,0.0142,0.0052,-0.0428,-0.012,41.2
2.358,0.0112,0.0067,-0.0383,-0.0091,41.4
2.359,0.0105,0.0067,-0.0323,-0.0105,41.6
2.36,0.0067,0.0067,-0.0263,-0.0091,41.8
2.361,0.0007,0.0067,-0.027,-0.0083,41.9
2.362,0.0015,0.0097,-0.027,-0.0083,42.1
2.363,0.0037,0.0105,-0.027,-0.0083,42.3
2.364,0.003,0.009,-0.0248,-0.0098,42.4
2.365,0.003,0.0045,-0.0256,-0.0083,42.6
2.366,0.006,0.0015,-0.0278,-0.0105,42.8
2.367,0.0067,0.0015,-0.0263,-0.0113,43.0
2.368,0.0045,-0.0015,-0.027,-0.0113,43.1
2.369,0.003,-0.0023,-0.0218,-0.0113,43.3
2.37,0.0015,-0.006,-0.0143,-0.0068,43.5
2.371,-0.0008,-0.0068,-0.0083,-0.0053,43.6
2.372,-0.0015,-0.0038,-0.0038,-0.0038,43.8
2.373,-0.0015,-0.0015,-0.003,-0.0023,44.0
2.374,-0.0008,-0.0015,-0.0008,-0.003,44.2
2.375,0.0007,-0.0053,0.0022,-0.0015,44.4
2.376,0.0015,-0.0046,0.0045,-0.0015,44.5
2.377,-0.0015,-0.0008,0.0045,-0.0015,44.7
2.378,-0.0015,0.0007,0.0052,-0.003,44.9
2.379,-0.0023,0.0007,0.003,-0.0023,45.0
2.38,-0.0023,0.0015,0.0022,0.0007,45.2
2.381,-0.0038,0.0022,0.0037,0.0015,45.4
2.382,-0.003,-0.0008,-0.0015,0.0007,45.6
2.383,-0.0008,-0.0023,-0.0046,-0.0008,45.8
2.384,0.0007,-0.0046,-0.006,-0.0008,45.9
2.385,-0.0008,-0.0091,-0.0046,-0.0015,46.1
2.386,-0.003,-0.0105,0.0007,-0.0015,46.3
2.387,-0.0008,-0.0105,0.003,0.0015,46.4
2.388,0.0022,-0.0105,0.0067,0.0045,46.6
2.389,0.0007,-0.0098,0.0165,0.006,46.8
2.39,-0.0053,-0.0113,0.0262,0.0067,47.0
2.391,-0.0083,-0.006,0.0315,0.0082,47.1
2.392,-0.0091,-0.003,0.0337,0.0082,47.3
2.393,-0.0083,-0.0068,0.0367,0.009,47.5
2.394,-0.0098,-0.0091,0.039,0.0105,47.6
2.395,-0.0098,-0.0038,0.0382,0.0127,47.8
2.396,-0.0091,0.009,0.0382,0.0127,48.0
2.397,-0.0105,0.0165,0.0375,0.012,48.1
2.398,-0.012,0.0157,0.0352,0.012,48.3
2.399,-0.012,0.0105,0.0345,0.0105,48.5
2.4,-0.012,0.0082,0.0315,0.009,48.7
2.401,-0.0113,0.006,0.0292,0.012,48.8
2.402,-0.0083,-0.0008,0.0255,0.0105,49.0
2.403,-0.006,-0.0128,0.0262,0.009,49.1
2.404,-0.0091,-0.027,0.03,0.0045,49.2
2.405,-0.0113,-0.0383,0.0225,-0.0053,49.4
2.406,-0.0105,-0.0458,0.0157,-0.0083,49.5
2.407,-0.012,-0.039,0.0157,-0.0046,49.6
2.408,-0.0143,-0.0308,0.0127,-0.0038,49.8
2.409,-0.012,-0.033,0.0097,-0.0046,49.9
2.41,-0.012,-0.0383,0.015,-0.003,50.0
2.411,-0.0128,-0.0346,0.0165,-0.0008,50.1
2.412,-0.012,-0.0075,0.0135,0.0022,50.3
2.413,-0.0098,0.0307,0.012,0.009,50.4
2.414,-0.0075,0.054,0.0097,0.0157,50.5
2.415,-0.0053,0.0637,0.0105,0.018,50.7
2.416,-0.0015,0.0307,0.012,0.0232,50.8
2.417,0.0015,-0.0518,0.0172,0.0195,50.9
2.418,0.0045,-0.0638,0.018,0.0195,51.1
2.419,0.0067,-0.024,0.018,0.03,51.2
2.42,0.0067,-0.0128,0.0195,0.0225,51.3
2.421,0.009,-0.042,0.0217,0.0045,51.4
2.422,0.0105,-0.0361,0.0217,-0.0053,51.4
2.423,0.0105,0.0817,0.0217,-0.0128,51.5
2.424,0.0135,0.1312,0.0255,-0.0158,51.6
2.425,0.0142,0.093,0.0225,-0.0068,51.6
2.426,0.012,0.084,0.018,0.0007,51.7
2.427,0.0037,0.0787,0.009,0.0015,51.7
2.428,-0.0008,0.0457,0.0007,0.0015,51.8
2.429,-0.003,-0.0248,0.0007,-0.0128,51.8
2.43,-0.006,-0.0743,-0.0091,-0.0293,51.9
2.431,-0.0075,-0.1006,-0.0143,-0.0203,52.0
2.432,-0.0091,-0.1193,-0.0158,-0.0083,52.0
2.433,-0.0083,-0.1215,-0.0181,-0.0098,52.1
2.434,-0.0068,-0.1223,-0.0165,-0.0083,52.2
2.435,-0.0046,-0.1118,-0.0143,0.0045,52.2
2.436,-0.0053,-0.1043,-0.0105,0.0187,52.2
2.437,-0.0053,-0.1013,-0.0113,0.0352,52.3
2.438,-0.003,0.018,-0.0068,0.0637,52.4
2.439,-0.0008,0.3075,-0.0008,0.0817,52.4
2.44,0.0045,0.447,0.006,0.0667,52.5
2.441,0.006,0.2872,0.009,0.0382,52.5
2.442,0.0082,0.1447,0.0097,0.018,52.5
2.443,0.0067,0.0532,0.009,0.0,52.6
2.444,0.0045,-0.021,0.003,-0.0113,52.6
2.445,0.0037,-0.0015,0.0007,-0.012,52.6
2.446,0.0075,0.0105,-0.0008,-0.0188,52.6
2.447,0.0112,-0.0181,-0.0038,-0.0218,52.6
2.448,0.012,-0.0653,-0.0105,-0.0278,52.7
2.449,0.0135,-0.0608,-0.0181,-0.0383,52.7
2.45,0.0105,-0.0293,-0.0256,-0.039,52.7
2.451,0.009,-0.0675,-0.0353,-0.0488,52.8
2.452,0.0082,-0.108,-0.0375,-0.0443,52.8
2.453,0.0045,-0.093,-0.0353,-0.0263,52.8
2.454,0.0015,-0.0765,-0.033,-0.0165,52.8
2.455,0.0007,-0.0593,-0.0338,-0.006,52.9
2.456,0.0,-0.0083,-0.0285,0.0037,52.9
2.457,0.0022,0.0675,-0.0195,0.0165,52.9
2.458,0.0045,0.0765,-0.0068,0.0247,53.0
2.459,0.0082,0.0195,0.0037,0.0142,53.0
2.46,0.0097,0.0,0.0075,0.0037,53.0
2.461,0.009,-0.0256,0.0067,-0.0075,53.0
2.462,0.0082,-0.0398,-0.0015,-0.0105,53.0
2.463,0.0045,-0.033,-0.0015,-0.0015,53.0
2.464,0.0045,-0.0375,-0.0015,-0.0046,53.1
2.465,0.0045,-0.0285,-0.0091,-0.0083,53.1
2.466,0.0015,-0.0181,-0.012,-0.0046,53.1
2.467,0.0007,-0.0068,-0.0165,-0.006,53.1
2.468,0.0,0.003,-0.0165,-0.0075,53.1
2.469,-0.0008,0.0202,-0.0158,-0.006,53.1
2.47,-0.0008,0.0322,-0.0181,-0.0083,53.1
2.471,-0.0023,0.0255,-0.0181,-0.0105,53.1
2.472,-0.0023,0.006,-0.0143,-0.0083,53.1
2.473,-0.0038,-0.003,-0.0075,-0.012,53.1
2.474,-0.003,0.006,0.0007,-0.0083,53.1
2.475,-0.003,0.0,0.009,0.0015,53.1
2.476,-0.0038,0.0105,0.0165,0.0052,53.1
2.477,-0.0015,0.0202,0.0232,0.0202,53.1
2.478,-0.003,-0.0046,0.0232,0.0247,53.1
2.479,-0.0023,-0.027,0.0217,0.0142,53.1
2.48,-0.0046,-0.0488,0.0217,-0.0053,53.1
2.481,-0.0068,-0.0735,0.0142,-0.024,53.1
2.482,-0.003,-0.0691,0.0105,-0.0218,53.1
2.483,0.0022,-0.0465,0.009,-0.0165,53.1
2.484,0.003,-0.0405,0.0052,-0.0233,53.1
2.485,0.003,-0.0008,-0.0008,-0.0233,53.1
2.486,0.003,0.054,-0.0091,-0.0158,53.1
2.487,0.003,0.0652,-0.0091,0.0015,53.1
2.488,0.003,0.063,-0.003,0.0105,53.1
2.489,0.0015,0.075,-0.003,0.0105,53.1
2.49,0.003,0.0585,-0.006,0.0172,53.1
2.491,0.0022,0.018,-0.0083,0.0052,53.1
2.492,0.0,0.033,-0.012,-0.0015,53.0
2.493,-0.0008,0.0277,-0.0128,0.0082,53.0
2.494,0.0015,-0.0023,-0.0091,0.0097,53.0
2.495,0.0007,-0.0218,-0.0068,0.0187,53.0
2.496,0.003,-0.042,-0.006,0.0232,53.0
2.497,0.0022,-0.0308,-0.0075,0.0307,53.0
2.498,0.0,-0.0533,-0.0128,0.018,53.0
2.499,0.0022,-0.0465,-0.0158,-0.0091,52.9
2.5,0.0015,0.0,-0.0128,-0.0158,52.9
2.501,0.0052,0.048,-0.012,-0.0263,52.8
2.502,0.0067,0.0547,-0.006,-0.027,52.7
2.503,0.0067,-0.0128,-0.0053,-0.024,52.6
2.504,0.0082,-0.0308,-0.0091,-0.0203,52.6
2.505,0.006,-0.0443,-0.0068,-0.012,52.4
2.506,0.0037,-0.075,-0.0098,-0.0068,52.3
2.507,-0.0015,-0.0525,-0.0068,0.0232,52.2
2.508,-0.003,0.0067,-0.003,0.0442,52.2
2.509,-0.0023,0.0337,0.003,0.024,52.1
2.51,-0.003,0.0,0.009,0.0052,52.0
2.511,-0.0046,-0.0008,0.0067,-0.0046,51.9
2.512,-0.0083,-0.021,0.009,-0.0083,51.8
2.513,-0.0075,-0.0368,0.006,0.0015,51.7
2.514,-0.0083,0.0127,0.0082,0.0007,51.6
2.515,-0.006,0.045,0.009,-0.0038,51.5
2.516,-0.0015,0.0442,0.012,-0.0008,51.4
2.517,-0.0015,0.0075,0.0082,-0.0075,51.3
2.518,-0.0015,0.0157,-0.0023,-0.0091,51.2
2.519,-0.003,0.0292,0.0,-0.0068,51.1
2.52,-0.0008,0.0082,0.003,-0.0068,51.0
2.521,0.0007,0.0097,-0.003,-0.0083,50.9
2.522,0.0045,0.003,-0.024,-0.0143,50.8
2.523,0.0067,0.0022,-0.0165,-0.0075,50.6
2.524,-0.0015,-0.0053,-0.0015,-0.0053,50.5
2.525,0.0007,-0.0091,-0.0195,-0.012,50.4
2.526,0.0022,-0.0091,-0.0068,-0.0068,50.2
2.527,-0.0015,-0.0105,0.0037,0.0007,50.1
2.528,0.0045,-0.003,-0.003,0.0015,49.9
2.529,0.0052,-0.0068,-0.0046,-0.0015,49.8
2.53,0.0022,-0.0068,-0.0038,-0.0023,49.7
2.531,0.0015,-0.0083,-0.003,-0.0008,49.6
2.532,0.0067,-0.0068,-0.0008,0.0022,49.5
2.533,0.0067,-0.006,0.0067,0.0045,49.3
2.534,0.0052,-0.0091,0.003,0.0007,49.2
2.535,0.0045,-0.0083,0.0015,0.0007,49.0
2.536,0.0007,-0.0068,0.0015,0.0007,48.9
2.537,-0.0008,-0.0046,-0.0015,-0.0015,48.8
2.538,-0.0038,0.0015,-0.0008,-0.0008,48.6
2.539,-0.0046,0.012,-0.003,0.0,48.5
2.54,-0.0015,0.0142,-0.0068,0.0,48.3
2.541,-0.0008,0.012,-0.0098,-0.0023,48.2
2.542,0.0007,0.0045,-0.0068,-0.0023,48.1
2.543,0.0015,-0.0015,-0.0068,-0.0008,47.9
2.544,0.0015,0.0007,-0.0046,-0.0015,47.7
2.545,0.0007,-0.0015,0.0015,-0.0008,47.5
2.546,-0.0008,0.0022,0.0015,-0.0008,47.4
2.547,0.0015,0.0052,0.0022,-0.0015,47.2
2.548,0.003,0.0082,0.0045,-0.0008,47.0
2.549,0.0007,0.0082,0.0075,-0.0015,46.8
2.55,0.0007,0.003,0.006,-0.0023,46.7
2.551,-0.0008,0.0015,0.0015,-0.0046,46.5
2.552,-0.0046,-0.003,0.0015,-0.006,46.3
2.553,-0.0038,-0.0053,0.0007,-0.0046,46.2
2.554,-0.0053,-0.0083,-0.0008,-0.0053,46.0
2.555,-0.0068,-0.0075,0.0015,-0.0053,45.9
2.556,-0.0075,-0.0053,0.0052,-0.0038,45.7
2.557,-0.0083,-0.0068,0.0105,-0.0015,45.5
2.558,-0.0068,-0.0083,0.0135,0.0015,45.3
2.559,-0.0046,-0.0083,0.018,0.0015,45.2
2.56,-0.0023,-0.0068,0.0217,0.006,45.0
2.561,0.0045,-0.0008,0.0217,0.009,44.7
2.562,0.0067,0.009,0.0247,0.0082,44.5
2.563,0.0075,0.0112,0.0255,0.0067,44.2
2.564,0.0082,0.0105,0.0202,0.0037,44.0
2.565,0.0067,0.009,0.0202,-0.0008,43.7
2.566,0.003,0.0067,0.0187,-0.0038,43.5
2.567,0.0,0.0007,0.0172,-0.006,43.2
2.568,-0.0046,-0.0098,0.0202,-0.0046,43.0
2.569,-0.0068,-0.0143,0.0165,-0.0053,42.7
2.57,-0.0083,-0.0083,0.0105,-0.0098,42.5
2.571,-0.0053,0.003,0.006,-0.0098,42.3
2.572,-0.0053,0.0037,0.0045,-0.0083,42.0
2.573,-0.006,-0.0015,0.0045,-0.0083,41.8
2.574,-0.0068,-0.003,0.0037,-0.0068,41.5
2.575,-0.0068,-0.012,0.0082,-0.0046,41.3
2.576,-0.0083,-0.012,0.015,-0.0008,41.0
2.577,-0.0105,-0.0075,0.0127,-0.0046,40.8
2.578,-0.0038,-0.0008,-0.0046,-0.0128,40.5
2.579,0.0067,0.0112,-0.0165,-0.0203,40.3
2.58,0.0097,0.012,-0.0203,-0.024,40.0
2.581,0.0112,0.0105,-0.0233,-0.0203,39.7
2.582,0.012,0.009,-0.0256,-0.0143,39.4
2.583,0.0105,0.0082,-0.0263,-0.003,39.1
2.584,0.009,0.0082,-0.021,0.0187,38.8
2.585,0.0045,0.003,-0.015,0.033,38.6
2.586,0.0022,-0.0046,-0.0083,0.027,38.3
2.587,0.0045,-0.012,-0.0008,0.0135,38.0
2.588,0.0022,-0.015,0.003,0.0135,37.7
2.589,0.0015,-0.0105,0.0097,0.0195,37.4
2.59,0.0015,-0.0098,0.0195,0.0157,37.1
2.591,-0.003,-0.0113,0.0217,0.0007,36.9
2.592,-0.0046,-0.0188,0.0195,-0.0068,36.5
2.593,-0.0068,-0.0315,0.0187,-0.012,36.3
2.594,-0.0128,-0.033,0.0202,-0.0181,36.0
2.595,-0.0135,-0.027,0.018,-0.0105,35.7
2.596,-0.0105,-0.003,0.0112,0.0045,35.4
2.597,-0.0068,0.0345,0.0052,0.0127,35.1
2.598,-0.0046,0.0375,0.0007,0.0127,34.8
2.599,-0.003,0.0202,-0.0053,0.0142,34.5
2.6,-0.0008,0.0187,-0.0105,0.0187,34.2
2.601,0.0015,0.0195,-0.0143,0.018,34.0
2.602,0.0037,0.0202,-0.0158,0.0277,33.7
2.603,0.0052,0.027,-0.0158,0.0352,33.4
2.604,0.006,0.0277,-0.0195,0.018,33.1
2.605,0.0037,0.0157,-0.0195,0.0015,32.8
2.606,0.0045,0.0052,-0.0165,0.0045,32.5
2.607,0.0037,0.018,-0.0135,0.0067,32.2
2.608,0.0045,0.0067,-0.0015,0.0067,31.9
2.609,0.0067,-0.012,0.0052,0.0067,31.6
2.61,0.0075,-0.0068,0.003,-0.0015,31.4
2.611,0.003,-0.0105,0.0015,-0.0091,31.1
2.612,0.0037,-0.0068,-0.0008,-0.0091,30.8
2.613,0.0045,-0.0046,-0.0023,-0.0075,30.5
2.614,-0.0008,-0.0053,0.0015,-0.003,30.2
2.615,-0.0038,-0.0068,0.0097,-0.0023,29.9
2.616,-0.0068,-0.0105,0.0105,-0.0046,29.7
2.617,-0.0046,-0.0075,0.0022,-0.0068,29.3
2.618,-0.0015,-0.0083,0.0045,-0.0046,29.1
2.619,-0.0015,-0.006,-0.0015,-0.0068,28.8
2.62,0.0015,-0.0046,-0.0083,-0.0105,28.4
2.621,-0.003,-0.0046,-0.0015,-0.006,28.2
2.622,-0.0038,-0.0046,-0.0023,-0.0053,27.9
2.623,-0.003,-0.0046,-0.006,-0.0046,27.7
2.624,-0.0023,-0.003,-0.0023,-0.0008,27.4
2.625,-0.0023,-0.0008,0.0007,0.0045,27.1
2.626,-0.003,-0.0008,-0.0015,0.0067,26.9
2.627,0.0022,-0.0015,0.0007,0.003,26.6
2.628,0.0015,-0.003,0.0037,0.0015,26.4
2.629,0.0,-0.0046,0.0037,-0.003,26.1
2.63,0.003,-0.0023,0.0022,-0.0038,25.8
2.631,0.003,0.0007,0.0007,-0.003,25.6
2.632,0.0052,0.0022,-0.0038,-0.003,25.3
2.633,0.0037,0.0045,-0.0091,-0.003,25.0
2.634,-0.0046,0.0045,-0.0143,-0.0053,24.7
2.635,-0.0105,0.003,-0.0188,-0.0068,24.5
2.636,-0.0091,0.0052,-0.0158,-0.0075,24.3
2.637,-0.0015,0.0052,-0.0075,-0.0053,24.0
2.638,0.003,0.0052,-0.0008,-0.003,23.7
2.639,0.003,0.0045,-0.0023,-0.0046,23.4
2.64,0.0045,0.0015,-0.0015,-0.0015,23.1
2.641,0.0075,0.0037,-0.0023,0.0015,22.9
2.642,0.0045,0.0045,-0.0023,0.0045,22.7
2.643,0.0015,0.0015,0.0082,0.0082,22.4
2.644,0.0,0.0022,0.0112,0.0082,22.2
2.645,0.0015,0.0007,0.0022,-0.0038,21.9
2.646,0.0105,0.0,-0.0046,-0.0098,21.7
2.647,0.0165,0.003,-0.0083,-0.0038,21.5
2.648,0.0225,0.003,-0.0083,0.003,21.2
2.649,0.0217,0.0007,-0.0143,0.0052,21.0
2.65,0.0195,0.0007,-0.0203,-0.0068,20.7
2.651,0.0165,0.0007,-0.0203,-0.0203,20.4
2.652,0.0105,0.0015,-0.0181,-0.021,20.2
2.653,0.0097,0.003,-0.0181,-0.0143,19.9
2.654,0.0067,0.003,-0.0158,0.0007,19.7
2.655,0.0052,0.003,-0.0158,0.0262,19.4
2.656,0.0052,0.0007,-0.0181,0.042,19.2
2.657,0.0,-0.003,-0.0143,0.0315,19.0
2.658,-0.0053,-0.0046,-0.0113,0.0157,18.7
2.659,-0.0083,-0.003,-0.0083,0.006,18.5
2.66,-0.0075,-0.003,-0.0038,-0.0015,18.2
2.661,-0.0068,-0.0053,-0.003,-0.006,18.0
2.662,-0.0068,-0.0015,0.0,-0.0105,17.8
2.663,-0.006,-0.0008,0.003,-0.0091,17.5
2.664,-0.0053,-0.0008,0.003,-0.0075,17.3
2.665,-0.0046,0.0007,0.0015,-0.0068,17.0
2.666,-0.0053,0.0,0.003,-0.003,16.8
2.667,-0.0046,-0.003,0.003,-0.0053,16.6
2.668,-0.0008,-0.0068,0.0037,-0.0038,16.4
2.669,0.0037,-0.0053,0.0075,-0.0023,16.2
2.67,0.0045,-0.0008,0.009,-0.0023,15.9
2.671,0.003,0.003,0.0067,0.0015,15.7
2.672,0.0015,0.0007,0.0105,0.0052,15.5
2.673,0.0007,0.0,0.0135,0.0015,15.3
2.674,0.0007,-0.0015,0.012,0.0007,15.0
2.675,-0.003,0.0007,0.0142,0.0067,14.8
2.676,-0.0068,-0.0008,0.0105,0.0022,14.5
2.677,-0.0083,-0.0038,0.0045,-0.0083,14.3
2.678,-0.0083,-0.0038,0.0,-0.0105,14.1
2.679,-0.0091,-0.0015,-0.0015,-0.006,13.9
2.68,-0.0105,0.0015,0.0007,-0.0053,13.6
2.681,-0.0075,0.0,0.0015,-0.0015,13.4
2.682,-0.0046,0.0007,0.0015,0.0045,13.2
2.683,-0.0015,0.0007,0.0007,0.0007,13.0
2.684,-0.0015,-0.0008,-0.0015,-0.0091,12.8
2.685,-0.0015,0.0007,-0.003,-0.0181,12.6
2.686,-0.0008,0.0007,-0.0008,-0.0128,12.4
2.687,-0.0008,0.0007,0.0045,-0.0053,12.2
2.688,-0.0023,-0.0015,0.0067,-0.0008,12.0
2.689,-0.003,-0.003,0.0082,0.0082,11.8
2.69,-0.0023,-0.0053,0.0082,0.0127,11.6
2.691,-0.003,-0.006,0.006,0.0165,11.3
2.692,-0.0023,-0.0038,0.003,0.0165,11.2
2.693,-0.0046,-0.003,0.0067,0.0105,10.9
2.694,-0.0038,-0.003,0.0097,0.0045,10.7
2.695,-0.0015,-0.0053,0.009,-0.003,10.5
2.696,0.0007,-0.0053,0.0075,-0.0083,10.3
2.697,0.003,-0.0038,0.0052,-0.0098,10.1
2.698,0.0045,-0.0008,0.0045,-0.0128,9.9
2.699,0.0045,0.0007,-0.0015,-0.0158,9.7
2.7,0.0015,0.0015,-0.0083,-0.015,9.4
2.701,0.0022,0.0022,-0.012,-0.0143,9.3
2.702,0.0037,0.0007,-0.0113,-0.0105,9.1
2.703,0.0045,0.0015,-0.0083,-0.0068,9.0
2.704,0.0052,0.0015,-0.003,-0.0046,8.8
2.705,0.0045,0.003,0.0007,-0.003,8.6
2.706,0.0045,0.003,0.0097,0.0,8.5
2.707,0.0052,0.003,0.0165,0.0015,8.3
2.708,0.0045,0.0052,0.015,-0.0015,8.1
2.709,0.0045,0.0052,0.0165,-0.0015,7.9
2.71,0.003,0.0045,0.009,-0.003,7.7
2.711,0.0022,0.003,0.0,-0.0015,7.6
2.712,0.006,0.0,-0.0015,0.0052,7.4
2.713,0.0052,-0.0008,-0.006,0.0052,7.2
2.714,0.003,-0.0008,-0.0091,0.0045,7.1
2.715,0.0015,-0.0008,-0.012,-0.0023,6.9
2.716,0.0007,0.0,-0.0165,-0.0143,6.7
2.717,-0.003,0.0015,-0.0203,-0.0173,6.6
2.718,-0.0046,0.003,-0.024,-0.012,6.4
2.719,0.0015,0.003,-0.0278,-0.006,6.2
2.72,0.0037,0.0022,-0.0218,0.0052,6.0
2.721,0.0045,0.0007,-0.012,0.0187,5.9
2.722,0.0045,-0.0008,-0.0015,0.0225,5.8
2.723,0.0052,-0.0046,0.015,0.021,5.7
2.724,0.0037,-0.0113,0.0255,0.0157,5.6
2.725,0.0007,-0.0128,0.033,0.0105,5.5
2.726,-0.003,-0.0083,0.0382,0.0112,5.4
2.727,-0.0083,-0.0075,0.0412,0.0165,5.3
2.728,-0.0113,-0.0046,0.0367,0.0142,5.2
2.729,-0.0068,0.0007,0.024,0.0015,5.1
2.73,-0.0023,0.0007,0.021,-0.0091,4.9
2.731,-0.003,0.003,0.0127,-0.0195,4.9
2.732,-0.0008,0.0045,0.0022,-0.024,4.8
2.733,-0.003,0.0022,-0.0015,-0.0195,4.6
2.734,-0.0083,0.0015,-0.0038,-0.0113,4.5
2.735,-0.012,-0.003,-0.0046,-0.0053,4.5
2.736,-0.012,-0.0015,-0.0105,-0.0046,4.3
2.737,-0.0046,0.0007,-0.0195,-0.012,4.2
2.738,0.003,0.0007,-0.0293,-0.0256,4.1
2.739,0.0075,0.0015,-0.0323,-0.027,4.0
2.74,0.0097,-0.0015,-0.0375,-0.0248,3.9
2.741,0.009,-0.0015,-0.0353,-0.0195,3.9
2.742,0.0052,-0.0015,-0.0195,-0.003,3.8
2.743,0.0037,-0.003,-0.012,0.009,3.7
2.744,0.0037,-0.003,-0.0008,0.0127,3.6
2.745,0.003,0.0007,0.009,0.0135,3.6
2.746,0.0015,0.0052,0.0157,0.0165,3.5
2.747,0.0,0.0007,0.0217,0.0135,3.5
2.748,0.0007,-0.003,0.027,0.0142,3.4
2.749,-0.0015,-0.0046,0.0277,0.0202,3.3
2.75,-0.0068,-0.003,0.0255,0.024,3.2
2.751,-0.0083,-0.0046,0.0277,0.0277,3.2
2.752,-0.0083,-0.0091,0.0247,0.027,3.1
2.753,-0.0083,-0.0083,0.024,0.018,3.1
2.754,-0.0083,-0.0053,0.015,0.0045,3.0
2.755,-0.006,-0.0015,0.0082,0.0007,2.9
2.756,-0.0053,0.0007,0.012,-0.003,2.9
2.757,-0.0053,0.0015,0.0067,-0.0128,2.8
2.758,-0.003,0.003,0.0082,-0.0278,2.7
2.759,-0.0046,0.006,0.006,-0.0503,2.6
2.76,-0.0046,0.012,0.0007,-0.0653,2.6
2.761,-0.003,0.0157,-0.0023,-0.06,2.6
2.762,-0.0015,0.0165,-0.0128,-0.0308,2.6
2.763,-0.0023,0.0142,-0.0181,-0.0038,2.5
2.764,-0.003,0.0127,-0.0218,0.0195,2.5
2.765,-0.0015,0.0097,-0.0203,0.0615,2.5
2.766,0.0007,0.0022,-0.0105,0.0825,2.5
2.767,0.0007,-0.0135,-0.0046,0.0607,2.5
2.768,-0.0008,-0.027,0.012,0.0345,2.4
2.769,0.0015,-0.0278,0.039,0.0187,2.4
2.77,0.0015,-0.0203,0.057,0.0045,2.4
2.771,0.0007,-0.0165,0.0622,-0.0135,2.3
2.772,0.0015,-0.0091,0.063,-0.0293,2.3
2.773,0.0,-0.0008,0.0532,-0.0346,2.3
2.774,-0.0038,0.003,0.0442,-0.0308,2.3
2.775,-0.0091,0.0015,0.0307,-0.0233,2.2
2.776,-0.0113,-0.0015,0.0225,0.006,2.2
2.777,-0.0165,-0.006,0.0217,0.0427,2.2
2.778,-0.0233,-0.0158,0.003,0.0652,2.2
2.779,-0.021,-0.0218,-0.0203,0.0825,2.2
2.78,-0.015,-0.0218,-0.0256,0.0705,2.1
2.781,-0.0091,-0.0218,-0.0128,0.0315,2.1
2.782,-0.0015,-0.0165,-0.0098,-0.003,2.2
2.783,0.0067,-0.0068,-0.0053,-0.0181,2.2
2.784,0.0165,0.0052,-0.0038,-0.0143,2.2
2.785,0.0255,0.0157,-0.0158,-0.0068,2.2
2.786,0.0345,0.0195,-0.0256,-0.0083,2.2
2.787,0.0352,0.021,-0.0278,-0.0105,2.2
2.788,0.0322,0.0232,-0.024,-0.0053,2.3
2.789,0.027,0.0202,-0.027,-0.0068,2.3
2.79,0.0195,0.0127,-0.0285,-0.0143,2.3
2.791,0.0127,0.006,-0.0353,-0.03,2.3
2.792,0.0045,0.0037,-0.0398,-0.0465,2.3
2.793,-0.0046,0.0015,-0.0293,-0.054,2.4
2.794,-0.0105,0.0007,-0.0165,-0.0638,2.4
2.795,-0.006,0.0067,-0.0105,-0.0518,2.4
2.796,0.0142,0.012,-0.0165,-0.039,2.4
2.797,0.027,0.018,-0.0225,-0.027,2.5
2.798,0.0247,0.0225,-0.027,-0.0008,2.5
2.799,0.0195,0.0172,-0.0436,0.0067,2.5
2.8,0.0187,0.0142,-0.0668,0.0015,2.5
2.801,0.0247,0.0157,-0.0788,0.003,2.6
2.802,0.0255,0.0112,-0.0593,0.0202,2.6
2.803,0.012,0.003,-0.0623,0.0142,2.6
2.804,0.0052,0.003,-0.081,-0.0135,2.7
2.805,0.003,0.0022,-0.0706,-0.0143,2.7
2.806,-0.003,0.0,-0.0615,-0.0068,2.8
2.807,-0.0038,0.0037,-0.0555,-0.0053,2.8
2.808,-0.0046,0.0045,-0.0488,-0.0046,2.9
2.809,-0.0068,0.0045,-0.0361,0.009,2.9
2.81,-0.0068,0.0037,-0.0285,0.0105,3.0
2.811,0.0,0.0082,-0.0195,0.0022,3.0
2.812,0.0082,0.0157,-0.0098,0.012,3.1
2.813,0.0165,0.0142,-0.0143,0.0217,3.1
2.814,0.0157,0.0075,-0.012,0.0255,3.1
2.815,0.0082,0.0045,-0.0098,0.0307,3.2
2.816,-0.0015,-0.0023,0.0015,0.045,3.2
2.817,-0.0165,-0.0098,0.0157,0.06,3.3
2.818,-0.0143,-0.0181,0.0202,0.0495,3.3
2.819,-0.0091,-0.0278,0.0292,0.0142,3.4
2.82,-0.0068,-0.0308,0.0352,-0.0165,3.4
2.821,-0.006,-0.0323,0.0375,-0.0375,3.5
2.822,-0.0068,-0.0323,0.0375,-0.0473,3.5
2.823,-0.0053,-0.0248,0.0382,-0.0473,3.6
2.824,-0.0046,-0.015,0.036,-0.0346,3.6
2.825,-0.0046,-0.006,0.039,-0.0195,3.7
2.826,-0.0015,-0.003,0.0367,-0.0181,3.7
2.827,0.0135,-0.0038,0.0277,-0.0248,3.8
2.828,0.018,0.0015,0.0232,-0.0308,3.8
2.829,0.0165,0.0195,0.0172,-0.039,3.9
2.83,0.0127,0.0255,0.0195,-0.0346,4.0
2.831,0.0067,0.0112,0.0172,-0.0091,4.0
2.832,0.003,0.0075,0.0127,0.0142,4.0
2.833,0.0015,0.0082,0.0067,0.0337,4.1
2.834,0.0007,0.0052,0.0067,0.0495,4.1
2.835,-0.003,0.0067,0.0165,0.0525,4.2
2.836,-0.0008,0.0045,0.039,0.0562,4.2
2.837,-0.0053,0.003,0.054,0.0525,4.3
2.838,-0.0158,0.0007,0.0442,0.0345,4.4
2.839,-0.0233,-0.003,0.0292,0.015,4.4
2.84,-0.024,-0.003,0.0067,0.0015,4.5
2.841,-0.0128,-0.0053,-0.0143,-0.0105,4.5
2.842,-0.012,-0.0105,-0.0256,-0.0128,4.6
2.843,-0.0225,-0.0158,-0.027,-0.0098,4.7
2.844,-0.0405,-0.0188,-0.0128,-0.0135,4.7
2.845,-0.0428,-0.0203,0.0052,-0.0143,4.8
2.846,-0.0315,-0.0218,0.024,-0.0075,4.9
2.847,-0.0181,-0.0218,0.0345,0.0007,4.9
2.848,-0.0053,-0.0158,0.0457,0.0022,5.0
2.849,-0.0008,-0.0091,0.0532,0.0015,5.0
2.85,0.0082,-0.0008,0.048,0.0015,5.1
2.851,0.0082,0.0082,0.0405,-0.0046,5.2
2.852,0.0037,0.0097,0.0367,-0.012,5.3
2.853,0.0007,0.0037,0.039,-0.0195,5.3
2.854,0.0015,0.0007,0.033,-0.0203,5.4
2.855,0.015,0.0,0.021,-0.0143,5.5
2.856,0.03,-0.0015,0.0225,-0.0091,5.5
2.857,0.033,-0.003,0.0315,0.0007,5.6
2.858,0.0157,-0.0023,0.0277,0.012,5.7
2.859,0.0022,0.0015,0.0142,0.0165,5.7
2.86,-0.0046,0.0045,-0.0053,0.012,5.8
2.861,-0.0143,0.0075,-0.0188,0.0007,5.8
2.862,-0.0135,0.009,-0.0143,-0.0203,5.9
2.863,0.0075,0.0082,-0.0083,-0.0398,6.0
2.864,0.0337,0.0105,-0.0181,-0.0346,6.0
2.865,0.03,0.0157,-0.0181,-0.0218,6.1
2.866,0.0082,0.015,-0.0091,-0.0015,6.2
2.867,-0.0091,0.0082,-0.0113,0.0277,6.2
2.868,-0.027,-0.0023,-0.0113,0.045,6.3
2.869,-0.0383,-0.0113,-0.0173,0.0495,6.3
2.87,-0.0436,-0.0128,-0.0233,0.0442,6.4
2.871,-0.033,-0.0105,-0.0188,0.0262,6.4
2.872,0.0,-0.0038,-0.012,0.0142,6.5
2.873,0.0217,0.003,0.0007,0.0127,6.5
2.874,0.0247,0.0052,0.0052,0.006,6.6
2.875,0.0285,0.006,0.0082,0.0015,6.7
2.876,0.0217,0.0015,0.012,-0.0046,6.7
2.877,0.0007,-0.0068,0.0127,-0.0203,6.7
2.878,-0.0203,-0.0128,0.0247,-0.0533,6.8
2.879,-0.0233,-0.0113,0.0352,-0.0885,6.9
2.88,-0.0083,-0.0053,0.0277,-0.093,6.9
2.881,0.0127,0.0075,0.0097,-0.054,7.0
2.882,0.0195,0.0135,-0.006,0.003,7.2
2.883,-0.0046,0.0067,-0.0158,0.0405,7.2
2.884,-0.027,-0.0008,-0.0165,0.0802,7.4
2.885,-0.0443,-0.0008,-0.0256,0.108,7.5
2.886,-0.0503,-0.0075,-0.0263,0.078,7.6
2.887,-0.0375,-0.0158,-0.015,0.0315,7.7
2.888,-0.0233,-0.0105,-0.0105,0.0007,7.8
2.889,-0.0113,-0.0128,-0.003,-0.0091,7.9
2.89,-0.0075,-0.0128,-0.003,-0.0091,8.1
2.891,-0.0105,-0.0046,-0.006,-0.0091,8.1
2.892,-0.0068,0.0015,-0.006,-0.0068,8.2
2.893,0.0022,0.0007,-0.006,-0.0105,8.4
2.894,0.0127,-0.0015,-0.0053,-0.015,8.5
2.895,0.0187,0.0022,-0.0053,-0.012,8.6
2.896,0.0142,0.0007,-0.006,-0.0091,8.7
2.897,0.009,-0.0008,-0.0083,-0.0083,8.8
2.898,0.0007,0.0015,-0.0075,-0.0091,8.9
2.899,0.0015,0.0007,-0.0128,-0.0091,9.0
2.9,0.0112,-0.0008,-0.0105,-0.0098,9.1
2.901,0.0157,-0.0038,0.0007,-0.0091,9.3
2.902,0.0202,-0.0038,0.0127,-0.0083,9.4
2.903,0.0142,-0.003,0.024,-0.0053,9.6
2.904,0.0127,-0.0023,0.0232,-0.0046,9.7
2.905,0.0135,-0.0038,0.0247,-0.0046,9.9
2.906,0.009,-0.0046,0.0285,-0.0038,10.0
2.907,0.006,-0.0023,0.0255,-0.0046,10.2
2.908,-0.0008,0.0,0.0285,-0.003,10.3
2.909,-0.0015,0.0015,0.0157,-0.0015,10.4
2.91,-0.003,0.0015,-0.0083,-0.0015,10.6
2.911,-0.0128,0.0067,-0.0188,-0.0008,10.7
2.912,-0.024,0.0075,-0.024,-0.0008,10.9
2.913,-0.0278,0.0045,-0.027,0.0,11.0
2.914,-0.0143,0.0037,-0.0383,-0.003,11.2
2.915,0.0007,0.003,-0.0375,-0.006,11.3
2.916,0.0045,0.0045,-0.027,-0.0105,11.5
2.917,0.0105,0.0052,-0.0315,-0.012,11.6
2.918,0.0247,0.0082,-0.0278,-0.0046,11.8
2.919,0.042,0.0082,-0.0308,0.0045,11.9
2.92,0.0517,0.009,-0.0458,0.0045,12.1
2.921,0.0615,0.0157,-0.0495,0.0,12.1
2.922,0.069,0.0127,-0.039,-0.003,12.1
2.923,0.0607,0.0052,-0.0293,-0.0068,12.2
2.924,0.0457,0.0015,-0.0323,-0.0098,12.2
2.925,0.018,-0.0008,-0.0233,-0.0098,12.2
2.926,-0.0038,0.0007,-0.0218,-0.0091,12.3
2.927,-0.0075,0.0,-0.0285,-0.0075,12.3
2.928,-0.0068,-0.0008,-0.0353,-0.0098,12.4
2.929,-0.0195,-0.0023,-0.039,-0.0128,12.4
2.93,-0.0368,-0.0008,-0.0353,-0.0091,12.5
2.931,-0.0361,0.0045,-0.0375,-0.0083,12.5
2.932,-0.0263,0.0052,-0.039,-0.0083,12.5
2.933,-0.015,0.0067,-0.039,-0.0046,12.6
2.934,0.0015,0.0082,-0.0443,-0.003,12.6
2.935,0.018,0.0082,-0.0443,-0.003,12.6
2.936,0.0322,0.0082,-0.0353,-0.0015,12.7
2.937,0.0435,0.0075,-0.027,0.0015,12.7
2.938,0.0502,0.0082,-0.0181,0.0052,12.7
2.939,0.0502,0.0082,-0.0053,0.0067,12.8
2.94,0.042,0.0015,0.0142,0.0052,12.8
2.941,0.0217,-0.003,0.0285,0.0022,12.8
2.942,-0.0091,-0.0105,0.0337,0.0,12.6
2.943,-0.0308,-0.0143,0.0382,0.0015,12.6
2.944,-0.0398,-0.012,0.0367,0.0022,12.5
2.945,-0.0405,-0.0105,0.0315,0.0045,12.3
2.946,-0.039,-0.0068,0.0307,0.0067,12.2
2.947,-0.033,-0.0053,0.042,0.0067,12.1
2.948,-0.0308,-0.0046,0.048,0.0067,12.0
2.949,-0.0346,-0.0053,0.0442,0.0045,11.9
2.95,-0.0315,-0.0068,0.0352,0.0007,11.8
2.951,-0.024,-0.0038,0.0217,0.0007,11.7
2.952,-0.0128,0.0,0.0112,-0.0008,11.6
2.953,0.0052,0.0052,0.0015,0.0,11.5
2.954,0.0277,0.0082,0.0015,0.0015,11.4
2.955,0.042,0.003,-0.0015,-0.0015,11.3
2.956,0.0412,-0.0046,-0.0053,-0.0038,11.2
2.957,0.0195,-0.0053,-0.003,-0.003,11.1
2.958,-0.0083,0.0007,-0.0053,-0.0015,11.0
2.959,-0.015,0.006,-0.0165,-0.0046,10.8
2.96,-0.0105,0.006,-0.027,-0.0053,10.7
2.961,0.0,0.0037,-0.0068,-0.0015,10.7
2.962,0.0007,-0.0023,0.0142,0.0015,10.5
2.963,-0.0046,-0.0046,0.0225,0.0022,10.4
2.964,-0.0038,-0.0053,0.0285,0.006,10.3
2.965,-0.0105,-0.0068,0.0195,0.0067,10.2
2.966,-0.0143,-0.006,0.018,0.0082,10.1
2.967,-0.0105,-0.0068,0.0345,0.0097,10.0
2.968,-0.003,-0.0068,0.042,0.0082,9.9
2.969,-0.0015,-0.0046,0.0382,0.0075,9.8
2.97,-0.0053,-0.0046,0.0412,0.0082,9.6
2.971,-0.006,-0.0053,0.0405,0.0075,9.5
2.972,-0.0075,-0.0053,0.039,0.0082,9.4
2.973,-0.0091,-0.0053,0.0442,0.009,9.3
2.974,-0.0091,-0.0053,0.0442,0.009,9.2
2.975,-0.006,-0.0053,0.042,0.009,9.1
2.976,-0.006,-0.0046,0.039,0.0067,9.0
2.977,-0.0105,-0.0068,0.0345,0.003,8.9
2.978,-0.012,-0.0053,0.036,0.0045,8.8
2.979,-0.015,-0.0046,0.0367,0.0052,8.6
2.98,-0.0195,-0.0068,0.0307,0.006,8.5
2.981,-0.0256,-0.0038,0.0255,0.0075,8.5
2.982,-0.033,-0.0023,0.0232,0.0045,8.5
2.983,-0.024,-0.003,0.0217,0.003,8.5
2.984,-0.006,-0.0008,0.0142,0.0022,8.5
2.985,0.0022,0.0007,0.003,0.0015,8.4
2.986,0.0037,0.0037,-0.0083,0.0015,8.4
2.987,-0.0008,0.0075,-0.0195,0.0,8.4
2.988,-0.0068,0.0067,-0.0233,-0.0015,8.3
2.989,-0.0091,0.0045,-0.0233,0.0,8.3
2.99,-0.006,0.003,-0.0165,-0.0008,8.3
2.991,-0.0023,0.0022,-0.0083,-0.0023,8.2
2.992,0.0105,0.0007,-0.0046,-0.0015,8.2
2.993,0.021,-0.0008,0.003,-0.0015,8.2
2.994,0.0262,0.0007,0.0157,-0.0015,8.2
2.995,0.036,0.0007,0.0217,0.0015,8.1
2.996,0.0352,-0.003,0.0165,0.0045,8.1
2.997,0.0315,-0.006,0.012,0.0015,8.1
2.998,0.033,-0.0083,0.0082,-0.0008,8.1
2.999,0.0315,-0.0091,0.0067,-0.0038,8.1
3.0,0.0195,-0.0046,0.012,-0.0023,8.0
3.001,0.006,-0.0046,0.0127,-0.003,8.0
3.002,-0.0068,-0.003,0.0142,-0.0015,8.1
3.003,-0.0195,-0.0015,0.012,-0.0023,8.1
3.004,-0.03,-0.003,0.0045,-0.003,8.1
3.005,-0.033,-0.0023,-0.0038,-0.0015,8.1
3.006,-0.027,-0.0008,-0.0158,-0.003,8.2
3.007,-0.0248,0.0022,-0.0248,-0.0046,8.2
3.008,-0.0203,0.003,-0.0285,-0.0046,8.2
3.009,-0.0225,0.0007,-0.0218,-0.0015,8.3
3.01,-0.0278,-0.0023,-0.0143,0.0,8.3
3.011,-0.0248,-0.0015,-0.0173,-0.003,8.4
3.012,-0.0181,0.003,-0.0158,-0.0008,8.4
3.013,-0.0008,0.0022,-0.0181,0.0015,8.4
3.014,0.0022,0.0015,-0.0181,0.0007,8.5
3.015,0.0022,0.0037,-0.0158,0.0015,8.5
3.016,0.0082,0.0022,-0.015,0.0007,8.5
3.017,0.0157,0.0045,-0.015,-0.003,8.6
3.018,0.0352,0.0105,-0.0181,-0.0046,8.6
3.019,0.051,0.0097,-0.0143,-0.0083,8.6
3.02,0.057,0.0067,-0.0083,-0.0105,8.7
3.021,0.0457,0.0037,-0.0023,-0.0098,8.7
3.022,0.024,0.0015,-0.006,-0.0098,8.7
3.023,0.003,0.0015,-0.0233,-0.0091,8.8
3.024,-0.0158,0.0015,-0.0315,-0.0083,8.8
3.025,-0.0195,0.0015,-0.0203,-0.0038,8.8
3.026,-0.0128,0.0,-0.0091,-0.0008,8.8
3.027,-0.0008,0.0007,-0.0113,-0.003,8.8
3.028,0.009,0.0,-0.0181,-0.0023,8.9
3.029,0.0052,0.0007,-0.0308,-0.0023,8.9
3.03,-0.0046,0.0007,-0.0495,-0.0046,8.9
3.031,-0.015,0.0,-0.063,-0.0068,9.0
3.032,-0.0143,0.003,-0.0713,-0.0083,9.0
3.033,0.003,0.0037,-0.0773,-0.0068,9.0
3.034,0.0255,0.009,-0.0743,-0.0083,9.0
3.035,0.0337,0.0075,-0.0623,-0.0113,9.0
3.036,0.0262,0.0045,-0.0578,-0.0098,9.0
3.037,0.018,0.0105,-0.06,-0.0068,9.0
3.038,0.0292,0.0172,-0.0698,-0.006,9.1
3.039,0.0562,0.0217,-0.0713,-0.0068,9.1
3.04,0.0652,0.0157,-0.0645,-0.012,9.1
3.041,0.0517,0.0105,-0.0638,-0.0165,9.1
3.042,0.0277,0.0105,-0.0585,-0.0158,9.1
3.043,0.012,0.0105,-0.0555,-0.0165,9.1
3.044,0.009,0.0105,-0.0593,-0.0173,9.1
3.045,0.009,0.0097,-0.063,-0.0143,9.1
3.046,0.012,0.0105,-0.0578,-0.0113,9.1
