Time_s,RF,BF,VM,ST,FX
0.0,-0.0008,0.0015,0.0007,-0.0023,4.9
0.001,-0.0008,-0.0008,0.003,-0.0023,4.9
0.002,0.0,0.0007,0.0015,0.0,4.9
0.003,-0.0008,0.0,0.003,-0.0015,4.9
0.004,-0.0008,-0.0008,0.0022,-0.0015,4.9
0.005,0.0007,0.0,0.0015,-0.0015,4.9
0.006,0.0,-0.0008,0.0,0.0,4.9
0.007,-0.0015,-0.0008,0.0007,-0.0008,4.9
0.008,-0.0023,-0.0008,0.0007,-0.0023,4.9
0.009,-0.003,-0.0015,-0.0008,-0.003,4.9
0.01,-0.0015,-0.0038,0.0015,-0.003,4.9
0.011,-0.0008,-0.0008,0.003,0.0015,4.9
0.012,-0.0023,0.0,0.0007,-0.0008,4.9
0.013,-0.0015,-0.0008,0.0007,0.0007,4.9
0.014,-0.0008,-0.0015,0.0007,0.0045,4.9
0.015,0.0,-0.0008,-0.0008,0.0007,4.9
0.016,0.0007,0.0007,-0.0015,-0.0008,4.9
0.017,0.0,0.0,-0.0015,-0.0008,4.9
0.018,0.0,0.0015,0.0007,-0.0008,4.9
0.019,0.0015,0.0015,0.0015,-0.0008,4.9
0.02,0.0007,0.0015,0.0022,-0.0038,4.9
0.021,0.0022,0.0007,0.0052,-0.0015,4.9
0.022,0.0007,-0.0015,0.0052,0.0022,4.9
0.023,-0.0008,-0.0015,0.0052,-0.0008,4.9
0.024,-0.0008,-0.0046,0.0045,-0.0046,4.9
0.025,-0.0008,-0.0053,0.0022,-0.003,4.9
0.026,0.0007,-0.0015,0.0015,-0.003,4.9
0.027,0.0007,0.0,0.0015,-0.003,4.9
0.028,0.0015,0.0007,0.0015,-0.0015,4.9
0.029,0.003,-0.0008,0.0007,-0.0015,4.9
0.03,0.0022,-0.003,0.003,-0.0046,4.9
0.031,0.003,-0.0008,0.0045,-0.0091,4.9
0.032,0.0015,-0.0008,0.0045,-0.0128,4.9
0.033,0.0007,-0.0038,0.0045,-0.0128,4.9
0.034,0.0007,-0.003,0.003,-0.0046,4.9
0.035,0.0007,-0.0023,0.003,0.0015,4.9
0.036,-0.0008,-0.0008,0.003,0.0015,4.9
0.037,-0.0008,-0.0015,0.0015,0.0015,4.9
0.038,-0.0008,-0.0015,0.0007,0.0052,4.9
0.039,0.0,-0.0008,-0.0008,0.006,4.9
0.04,0.0,0.0,0.0007,0.006,4.9
0.041,-0.0015,0.0015,0.0022,0.0045,4.9
0.042,-0.0008,0.0015,0.0015,0.0015,4.9
0.043,0.0,0.0007,0.003,0.0015,4.9
0.044,0.0,0.0007,0.0015,0.0007,4.9
0.045,-0.0015,0.0007,-0.0015,0.0,4.9
0.046,-0.0023,0.0,-0.0015,0.0,4.9
0.047,-0.0015,0.0015,-0.003,0.0,4.9
0.048,-0.003,0.0007,-0.0023,0.0007,4.9
0.049,-0.003,0.0007,0.0,0.0007,4.9
0.05,-0.0015,0.0015,-0.0008,-0.0015,4.9
0.051,-0.0015,0.0,0.0,0.0,4.9
0.052,0.0007,-0.0008,0.0007,0.0,4.9
0.053,0.0007,-0.0008,0.0007,-0.0015,4.9
0.054,0.0,-0.0008,0.0007,-0.0015,4.9
0.055,0.0,-0.0015,0.0,-0.0008,5.0
0.056,-0.0015,-0.0015,-0.0008,-0.0015,5.0
0.057,-0.0008,-0.0008,-0.0015,-0.0015,5.0
0.058,-0.0015,-0.0015,-0.0038,-0.0015,5.0
0.059,-0.0015,-0.003,-0.0046,-0.0008,5.0
0.06,-0.0008,-0.0023,-0.003,0.0,5.0
0.061,-0.0008,-0.0015,-0.003,0.0,5.0
0.062,0.0007,-0.0008,-0.0038,0.0,5.0
0.063,0.0007,0.0,-0.0008,0.0,5.0
0.064,-0.0008,0.0007,0.0,-0.0015,5.0
0.065,0.0,0.0015,0.0,-0.0015,5.0
0.066,0.0007,0.0007,0.0022,-0.0008,5.0
0.067,-0.0008,-0.0015,0.0015,0.0,5.0
0.068,0.0007,-0.0015,0.0045,-0.0008,5.0
0.069,0.0,0.0007,0.003,-0.0038,5.0
0.07,0.0007,-0.0008,0.003,-0.006,5.0
0.071,0.003,-0.0023,0.0052,-0.0098,5.0
0.072,0.0022,-0.003,0.0045,-0.0158,5.0
0.073,0.003,-0.0015,0.0067,-0.0143,5.0
0.074,0.003,-0.0008,0.006,-0.0075,5.0
0.075,0.0022,0.0,0.006,-0.003,5.0
0.076,0.0022,-0.0008,0.0075,-0.0008,5.0
0.077,0.003,-0.0008,0.0082,0.003,5.0
0.078,0.0022,-0.0023,0.0112,0.006,5.0
0.079,0.0037,-0.0015,0.0105,0.0075,5.0
0.08,0.0045,-0.0008,0.009,0.006,5.0
0.081,0.0045,-0.0008,0.0067,0.003,5.0
0.082,0.003,-0.0008,0.0045,0.0007,5.0
0.083,0.0015,-0.0008,0.0052,0.0,5.0
0.084,-0.0015,-0.0008,0.0015,-0.0015,5.0
0.085,-0.006,-0.003,-0.0038,-0.0083,4.9
0.086,-0.0075,-0.006,-0.0091,-0.012,4.9
0.087,-0.0083,-0.0046,-0.0105,-0.0075,4.9
0.088,-0.0091,-0.003,-0.0083,-0.0046,4.9
0.089,-0.0083,-0.0015,-0.006,-0.0023,4.9
0.09,-0.0068,0.0,-0.0046,0.0,4.9
0.091,-0.0053,0.0007,-0.0015,-0.0008,4.9
0.092,-0.0023,0.0007,0.0015,-0.0008,4.9
0.093,0.0015,-0.0008,0.0045,-0.0015,4.9
0.094,0.0007,-0.0008,0.003,-0.003,4.9
0.095,0.0,0.0,0.003,-0.0038,4.8
0.096,0.0007,0.0,0.0015,-0.003,4.8
0.097,-0.0015,0.0015,0.0007,-0.0015,4.8
0.098,-0.0015,-0.0008,0.0,-0.0015,4.8
0.099,-0.003,-0.0015,-0.0023,-0.0008,4.8
0.1,-0.0015,-0.0023,-0.0008,0.0,4.7
0.101,0.0007,-0.0023,0.0007,-0.0008,4.7
0.102,0.0,-0.0008,0.003,-0.003,4.7
0.103,-0.0008,-0.0008,0.003,-0.0015,4.7
0.104,-0.0008,-0.0015,0.0007,-0.0008,4.7
0.105,0.0007,-0.0008,0.0007,0.0007,4.7
0.106,0.0007,-0.0008,-0.0015,0.0007,4.6
0.107,0.0007,-0.0008,0.0007,-0.0008,4.6
0.108,0.0,0.0007,0.0015,-0.0008,4.6
0.109,0.0015,0.0,0.0015,-0.0008,4.6
0.11,0.0022,0.0015,0.003,-0.0008,4.5
0.111,0.0015,0.0007,0.0022,0.0015,4.5
0.112,0.0015,0.0015,0.0022,0.0037,4.5
0.113,0.0037,0.0015,0.0045,0.0015,4.5
0.114,0.0045,0.0007,0.0052,0.0007,4.5
0.115,0.0037,0.0015,0.0052,0.0015,4.5
0.116,0.0022,0.0007,0.0052,0.0007,4.5
0.117,0.0015,0.0007,0.003,-0.0008,4.4
0.118,0.0007,0.0,0.0015,-0.003,4.4
0.119,0.0,0.0007,0.0007,-0.003,4.4
0.12,0.0,0.0007,0.003,-0.003,4.3
0.121,0.0007,-0.0008,0.0037,-0.003,4.3
0.122,-0.0008,0.0007,0.003,-0.0038,4.3
0.123,0.0015,0.0007,0.003,-0.0068,4.3
0.124,0.0007,0.0007,0.0015,-0.0083,4.4
0.125,0.0007,0.0007,0.0,-0.0083,4.4
0.126,0.0007,-0.0008,-0.0008,-0.0038,4.4
0.127,0.0,0.0007,0.0015,0.0007,4.4
0.128,0.0015,0.003,0.0,0.0022,4.4
0.129,0.0,0.0037,0.0,0.0015,4.4
0.13,0.0007,0.003,0.0007,0.0045,4.4
0.131,0.0015,0.0045,0.003,0.0105,4.4
0.132,0.0015,0.003,0.0045,0.0067,4.4
0.133,0.0,-0.0015,0.003,0.012,4.4
0.134,-0.0008,-0.0015,0.0045,0.024,4.4
0.135,0.0,-0.0023,0.003,0.021,4.4
0.136,-0.0008,-0.0105,0.0007,0.0187,4.4
0.137,-0.0008,-0.0158,0.0,-0.003,4.5
0.138,-0.0008,-0.015,-0.0008,-0.0188,4.5
0.139,-0.003,-0.0113,-0.0023,-0.0165,4.5
0.14,-0.003,-0.0038,-0.003,-0.0181,4.5
0.141,-0.0038,-0.0008,-0.0053,-0.0105,4.5
0.142,-0.006,-0.0008,-0.0083,-0.0158,4.5
0.143,-0.0053,-0.0038,-0.012,-0.0181,4.4
0.144,-0.0068,-0.0068,-0.0083,-0.0105,4.4
0.145,-0.0053,-0.006,-0.0046,-0.003,4.4
0.146,-0.0046,-0.0008,-0.0008,0.0022,4.3
0.147,-0.0015,0.0037,0.0022,0.0015,4.3
0.148,0.0015,0.0022,0.0045,0.0037,4.3
0.149,0.0015,0.0045,0.009,0.0,4.3
0.15,0.0045,0.0045,0.0105,0.0007,4.2
0.151,0.003,0.0037,0.0112,-0.0008,4.2
0.152,0.003,0.0045,0.0097,-0.0008,4.2
0.153,0.0015,0.0037,0.0082,0.0045,4.1
0.154,0.0007,0.0052,0.0067,0.0082,4.1
0.155,0.0015,0.0052,0.0045,0.0105,4.1
0.156,0.0,0.0037,0.0015,0.0105,4.0
0.157,0.0007,0.003,0.0022,0.0067,4.0
0.158,0.0,0.003,0.0022,0.0007,4.0
0.159,0.0015,0.0015,0.0022,-0.0053,4.0
0.16,0.003,-0.0008,0.0037,-0.0113,3.9
0.161,0.0015,-0.0008,0.0045,-0.0158,3.9
0.162,0.0015,-0.0015,0.0037,-0.021,3.9
0.163,0.0007,-0.0023,0.0022,-0.0233,3.9
0.164,0.0037,-0.0015,0.003,-0.0195,3.9
0.165,0.0015,0.0007,0.003,-0.0105,3.9
0.166,0.0015,0.0015,0.0015,0.0007,3.8
0.167,0.003,0.0015,0.0015,0.003,3.8
0.168,-0.0008,-0.0015,0.003,0.012,3.8
0.169,-0.0008,-0.0015,0.003,0.0142,3.8
0.17,-0.0015,0.0007,0.0007,0.0067,3.7
0.171,-0.0046,-0.0008,-0.0008,0.0045,3.7
0.172,-0.003,-0.0015,-0.0015,0.0015,3.7
0.173,-0.0015,-0.003,-0.0008,0.0052,3.7
0.174,-0.0008,-0.0008,-0.0015,0.015,3.7
0.175,-0.003,0.0015,-0.0046,0.0187,3.6
0.176,-0.0038,0.003,-0.003,0.0037,3.6
0.177,-0.0015,0.0022,-0.0015,-0.0218,3.6
0.178,-0.0008,-0.0038,0.0015,-0.0293,3.6
0.179,-0.0008,-0.0046,0.0022,-0.0135,3.6
0.18,0.0007,-0.003,0.0045,0.003,3.5
0.181,0.0007,-0.0008,0.0045,0.0142,3.5
0.182,-0.0008,-0.0046,0.0022,0.009,3.5
0.183,-0.0008,-0.0105,0.0015,-0.0083,3.5
0.184,-0.0008,-0.0135,0.0022,-0.012,3.4
0.185,-0.0015,-0.0128,0.0052,0.0052,3.4
0.186,0.0015,-0.0053,0.006,0.0142,3.3
0.187,0.003,-0.0008,0.0045,-0.0008,3.3
0.188,0.0052,-0.0008,0.0037,-0.0218,3.3
0.189,0.003,-0.0008,0.0045,-0.0278,3.2
0.19,0.0007,0.0015,0.0037,-0.0128,3.2
0.191,0.0015,0.0015,0.003,-0.0075,3.2
0.192,0.0015,-0.0008,0.0022,-0.0053,3.1
0.193,0.0007,0.0,0.0,-0.0053,3.1
0.194,-0.0008,-0.003,-0.0015,-0.0158,3.1
0.195,-0.0008,-0.0068,-0.0023,-0.0075,3.1
0.196,0.0007,-0.0038,-0.0023,0.0105,3.0
0.197,0.0007,0.0007,0.0015,0.0157,3.0
0.198,0.0015,0.0037,0.0022,0.0007,2.9
0.199,0.0022,0.003,0.003,0.0007,2.9
0.2,0.003,0.003,0.0045,0.0082,2.8
0.201,0.0037,0.003,0.0015,0.0007,2.8
0.202,0.0015,0.0052,0.003,-0.0015,2.8
0.203,0.0007,0.009,0.003,0.0015,2.7
0.204,0.0007,0.0105,0.0045,0.006,2.7
0.205,0.003,0.0097,0.003,-0.0023,2.7
0.206,0.0007,0.0067,0.0015,-0.0083,2.6
0.207,-0.0015,0.003,0.0007,-0.0053,2.6
0.208,-0.0008,-0.0046,-0.0023,-0.0046,2.6
0.209,0.0,-0.0083,0.0007,0.0202,2.5
0.21,-0.0008,-0.0105,0.0045,0.045,2.5
0.211,-0.0038,-0.0135,0.0045,0.0382,2.5
0.212,-0.0038,-0.0135,0.0037,0.0142,2.4
0.213,-0.0023,-0.0098,0.0015,-0.0083,2.4
0.214,-0.003,-0.0091,0.0007,-0.0113,2.3
0.215,-0.0008,-0.0053,0.0007,-0.003,2.3
0.216,-0.0008,0.0007,-0.0008,-0.0046,2.2
0.217,0.0015,0.0045,-0.0015,-0.0038,2.2
0.218,0.0015,0.0052,-0.0023,-0.006,2.2
0.219,0.0015,0.003,-0.0015,-0.0008,2.2
0.22,0.003,0.0052,-0.0008,0.0052,2.1
0.221,0.0015,0.003,-0.0015,0.003,2.1
0.222,0.0022,-0.0015,0.0,-0.0015,2.0
0.223,0.0015,-0.003,-0.0008,-0.0046,2.0
0.224,0.0015,-0.0008,0.0007,-0.0128,1.9
0.225,-0.0008,0.0,0.0007,-0.0203,1.8
0.226,0.0,0.0015,0.0015,-0.0098,1.8
0.227,0.0007,0.0082,0.003,-0.0105,1.8
0.228,0.0,0.0045,0.0022,-0.0158,1.7
0.229,0.0015,-0.0015,0.0007,-0.0075,1.7
0.23,0.0007,-0.0046,-0.0008,0.0075,1.6
0.231,0.0,-0.0015,0.0007,0.015,1.5
0.232,0.0022,0.0045,0.0007,0.0135,1.5
0.233,0.003,0.0075,0.0015,0.0052,1.4
0.234,0.0022,0.0052,0.0015,-0.0068,1.4
0.235,0.003,0.0052,0.0015,-0.0233,1.3
0.236,0.0022,0.003,0.0007,-0.0346,1.3
0.237,0.0007,-0.0015,-0.0008,-0.0346,1.2
0.238,0.0,-0.003,-0.0023,-0.0256,1.2
0.239,-0.0008,-0.0128,-0.0023,0.0045,1.1
0.24,-0.003,-0.0173,0.0,0.0112,1.0
0.241,-0.0015,-0.0165,0.0,-0.0046,1.0
0.242,0.0015,-0.0128,-0.0008,-0.0158,1.0
0.243,-0.0008,-0.0091,-0.0008,-0.0195,0.9
0.244,-0.003,-0.0023,-0.0008,-0.003,0.9
0.245,-0.003,0.0022,0.0015,0.0,0.8
0.246,-0.003,0.0015,0.0,0.0067,0.8
0.247,-0.0038,0.0022,0.0,0.0105,0.7
0.248,-0.003,0.0007,0.0015,0.0067,0.7
0.249,-0.0015,0.003,0.003,0.009,0.6
0.25,-0.0023,0.003,0.0037,0.0112,0.5
0.251,-0.003,0.0037,0.0037,0.021,0.5
0.252,-0.0023,0.0045,0.0037,0.0217,0.4
0.253,-0.0023,0.003,0.0022,0.0172,0.4
0.254,-0.0015,0.0045,0.0052,0.0112,0.4
0.255,-0.0015,0.0052,0.0045,0.012,0.3
0.256,-0.0015,0.0052,0.0022,0.009,0.3
0.257,0.0,0.003,0.003,0.0075,0.2
0.258,0.0007,0.0,0.003,0.0015,0.1
0.259,0.0,-0.0023,0.0045,-0.0098,0.1
0.26,0.0007,-0.0038,0.0045,-0.0135,0.0
0.261,0.0007,-0.0015,0.0037,-0.0165,0.0
0.262,-0.0008,0.0,0.003,-0.0083,0.0
0.263,-0.0008,0.0007,0.0022,-0.0181,-0.1
0.264,-0.0008,-0.0015,0.003,-0.0368,-0.1
0.265,0.0,-0.0053,0.003,-0.027,-0.2
0.266,-0.0038,-0.003,0.0045,-0.0068,-0.2
0.267,-0.0046,-0.0023,0.0022,-0.0015,-0.3
0.268,-0.003,-0.0008,0.0007,-0.0008,-0.3
0.269,-0.0015,0.0007,0.0015,0.003,-0.4
0.27,-0.0015,0.0007,-0.0008,0.0022,-0.4
0.271,-0.0015,0.0007,-0.0008,0.0007,-0.5
0.272,0.0007,-0.0008,-0.0015,-0.0038,-0.5
0.273,0.0,-0.0015,-0.0015,-0.0038,-0.5
0.274,-0.0015,0.0007,-0.0015,-0.0015,-0.6
0.275,-0.0008,0.0007,-0.0015,-0.0008,-0.6
0.276,0.0007,0.0007,-0.003,0.0022,-0.7
0.277,0.0,0.0007,-0.0015,0.0045,-0.7
0.278,-0.0015,-0.0008,-0.0023,0.0127,-0.8
0.279,-0.0015,0.0015,-0.003,0.024,-0.8
0.28,-0.003,0.006,-0.003,0.0195,-0.9
0.281,-0.0023,0.006,-0.0046,0.0127,-0.9
0.282,-0.0023,0.0037,-0.0046,0.0202,-0.9
0.283,-0.0023,0.0022,-0.0046,0.0337,-1.0
0.284,-0.0008,0.0045,-0.0023,0.033,-1.1
0.285,0.0007,0.0022,-0.0015,0.0142,-1.1
0.286,0.0007,-0.0068,0.0022,0.0015,-1.2
0.287,0.0007,-0.0091,0.003,-0.0091,-1.3
0.288,0.0007,-0.006,0.0007,-0.0293,-1.3
0.289,-0.0015,-0.0098,0.0015,-0.03,-1.4
0.29,-0.003,-0.0158,-0.0008,-0.0278,-1.4
0.291,-0.003,-0.0203,-0.003,-0.0428,-1.5
0.292,-0.003,-0.0188,-0.0008,-0.0443,-1.5
0.293,-0.0008,-0.0083,0.0015,-0.024,-1.6
0.294,0.0007,-0.0015,0.0,-0.003,-1.6
0.295,-0.0008,-0.0015,0.0007,0.009,-1.7
0.296,-0.0015,0.0,0.0,0.0142,-1.8
0.297,0.0015,0.0022,0.0015,0.0157,-1.8
0.298,0.003,0.0045,0.0045,0.009,-1.9
0.299,0.0022,0.006,0.006,0.0007,-1.9
0.3,0.003,0.0075,0.0052,-0.003,-2.0
0.301,0.003,0.0067,0.003,-0.0068,-2.1
0.302,0.0022,0.0067,0.0022,-0.0113,-2.1
0.303,0.0022,0.006,0.0015,-0.0233,-2.2
0.304,0.003,0.0,0.0015,-0.027,-2.3
0.305,0.003,-0.0053,0.0015,0.0045,-2.3
0.306,0.003,-0.0046,0.003,0.021,-2.4
0.307,0.0015,0.0007,0.0022,0.006,-2.4
0.308,0.0007,0.0015,0.0015,0.0037,-2.5
0.309,0.0,0.0037,0.0022,0.0007,-2.6
0.31,0.0022,0.0045,0.0007,-0.0008,-2.7
0.311,0.0022,0.0045,-0.0008,0.0075,-2.7
0.312,0.0007,0.0067,0.0007,0.0112,-2.8
0.313,0.0015,0.0052,-0.0015,0.0127,-2.9
0.314,-0.0008,0.0007,-0.0023,0.0127,-2.9
0.315,-0.0008,-0.0046,-0.003,0.024,-3.0
0.316,-0.003,-0.0015,-0.0075,0.033,-3.1
0.317,-0.0046,0.0007,-0.0105,0.0255,-3.1
0.318,-0.0046,-0.0008,-0.012,0.0082,-3.2
0.319,-0.0053,-0.0008,-0.0128,-0.0143,-3.2
0.32,-0.0068,-0.003,-0.012,-0.0233,-3.4
0.321,-0.0053,-0.0008,-0.0135,-0.0165,-3.4
0.322,-0.0053,0.003,-0.0143,-0.0188,-3.5
0.323,-0.006,0.0007,-0.0143,-0.0233,-3.6
0.324,-0.0053,-0.0053,-0.0143,-0.0128,-3.7
0.325,-0.006,-0.012,-0.0143,-0.006,-3.8
0.326,-0.0075,-0.015,-0.0128,-0.0083,-3.9
0.327,-0.0068,-0.0105,-0.0091,-0.0113,-4.0
0.328,-0.0046,-0.0091,-0.0038,-0.0075,-4.1
0.329,0.0015,-0.0068,0.0015,0.0,-4.2
0.33,0.003,-0.0015,0.0082,0.009,-4.3
0.331,0.0052,-0.0015,0.015,0.0082,-4.4
0.332,0.0082,0.0007,0.021,-0.0038,-4.5
0.333,0.009,0.0015,0.0255,-0.003,-4.6
0.334,0.0112,0.0007,0.0277,-0.0098,-4.7
0.335,0.0127,0.003,0.0292,-0.0135,-4.8
0.336,0.0157,0.0052,0.0345,-0.0046,-4.9
0.337,0.0172,0.003,0.0337,-0.003,-5.0
0.338,0.0157,-0.0046,0.0277,0.0037,-5.1
0.339,0.0142,-0.0053,0.027,0.012,-5.2
0.34,0.012,0.0007,0.018,0.003,-5.4
0.341,0.0082,0.0045,0.0105,-0.012,-5.4
0.342,0.003,0.0,0.0015,-0.0323,-5.5
0.343,-0.0008,0.003,-0.0046,-0.0278,-5.7
0.344,-0.0015,0.009,-0.0053,-0.003,-5.8
0.345,-0.0023,0.009,-0.0091,0.0045,-5.9
0.346,-0.0038,0.0037,-0.0105,0.0045,-6.0
0.347,-0.0038,-0.0046,-0.0113,-0.0128,-6.2
0.348,-0.0053,-0.0053,-0.0128,-0.015,-6.3
0.349,-0.006,-0.0015,-0.0128,0.0007,-6.4
0.35,-0.0046,-0.0068,-0.012,0.0015,-6.5
0.351,-0.0053,-0.0053,-0.0128,0.003,-6.7
0.352,-0.0053,0.0015,-0.0098,0.0067,-6.8
0.353,-0.0046,0.0045,-0.0068,0.009,-6.9
0.354,-0.0053,0.003,-0.0053,0.0105,-7.0
0.355,-0.006,0.0,-0.006,0.012,-7.2
0.356,-0.006,-0.0015,-0.0068,-0.0015,-7.2
0.357,-0.0068,-0.0015,-0.006,-0.0068,-7.4
0.358,-0.0046,-0.0015,-0.0038,0.0142,-7.5
0.359,-0.0046,-0.0023,-0.0008,0.0345,-7.6
0.36,-0.003,0.0015,-0.0008,0.0352,-7.8
0.361,-0.0015,0.0045,0.0022,0.0202,-7.9
0.362,-0.003,-0.0023,0.003,0.009,-8.0
0.363,-0.0053,-0.0038,0.0037,0.0015,-8.2
0.364,-0.006,-0.0053,0.0015,-0.012,-8.3
0.365,-0.0068,-0.0098,-0.0015,-0.0181,-8.5
0.366,-0.0046,-0.0075,0.0007,-0.0263,-8.6
0.367,-0.003,-0.0046,0.003,-0.024,-8.7
0.368,-0.0038,0.0007,0.0045,-0.0015,-8.9
0.369,-0.0015,0.003,0.006,0.0052,-9.0
0.37,-0.0015,0.0052,0.0067,0.0045,-9.2
0.371,-0.0008,0.0052,0.0067,0.0045,-9.3
0.372,0.0,0.0015,0.0067,0.0105,-9.5
0.373,-0.0008,0.0015,0.0082,0.018,-9.6
0.374,0.0007,0.0022,0.0075,0.0067,-9.8
0.375,-0.0008,0.0037,0.0105,-0.0158,-9.9
0.376,0.0037,0.0015,0.024,-0.0225,-10.0
0.377,0.0097,0.0007,0.039,-0.0068,-10.2
0.378,0.015,-0.0015,0.0397,-0.003,-10.4
0.379,0.0105,-0.0053,0.021,-0.0046,-10.5
0.38,0.0007,-0.0046,0.012,-0.0105,-10.7
0.381,0.0015,-0.0015,0.009,-0.0128,-10.8
0.382,0.0,-0.0015,-0.0008,-0.0023,-11.1
0.383,-0.003,-0.0053,-0.0046,-0.0015,-11.3
0.384,-0.0046,-0.0046,-0.0083,-0.0053,-11.5
0.385,-0.0053,0.0,-0.0053,-0.0075,-11.7
0.386,-0.0038,0.0007,-0.0038,-0.0068,-11.9
0.387,-0.0038,0.003,-0.0046,-0.0128,-12.1
0.388,-0.0008,0.006,-0.0015,-0.0181,-12.3
0.389,0.0007,0.0067,-0.0008,-0.021,-12.6
0.39,0.003,0.006,0.0015,-0.021,-12.8
0.391,0.003,0.0045,0.0015,-0.0135,-13.0
0.392,0.003,0.0015,0.003,0.0015,-13.2
0.393,0.0037,-0.0008,0.0052,0.024,-13.4
0.394,0.0037,-0.003,0.0052,0.033,-13.6
0.395,0.0037,-0.003,0.0045,0.0315,-13.8
0.396,0.0015,-0.0023,0.0045,0.0292,-14.0
0.397,0.003,-0.003,0.003,0.0322,-14.3
0.398,0.0007,-0.0008,0.0022,0.03,-14.4
0.399,0.0007,0.0022,0.0045,0.0225,-14.7
0.4,0.0045,0.0045,0.0052,0.0157,-14.9
0.401,0.003,0.0052,0.0022,-0.0105,-15.2
0.402,0.003,-0.0008,0.0052,-0.0233,-15.4
0.403,0.0037,0.0015,0.009,-0.0158,-15.7
0.404,0.0045,0.003,0.0067,-0.024,-15.9
0.405,0.0015,-0.0015,0.003,-0.0368,-16.2
0.406,-0.0008,-0.0068,-0.0008,-0.0278,-16.4
0.407,-0.003,-0.0098,-0.0015,-0.0218,-16.7
0.408,-0.0023,-0.0098,-0.0008,-0.0263,-16.9
0.409,-0.003,-0.0105,-0.0008,-0.0165,-17.1
0.41,-0.0023,-0.006,-0.0023,-0.0098,-17.4
0.411,0.0007,-0.0015,-0.0023,-0.006,-17.7
0.412,0.0007,0.0,-0.0023,-0.0023,-17.9
0.413,0.0007,0.0007,0.0007,-0.0023,-18.2
0.414,0.003,0.0045,0.0022,0.0007,-18.4
0.415,0.0015,0.003,-0.0038,0.0007,-18.7
0.416,-0.003,0.0007,-0.0091,0.0067,-18.9
0.417,-0.0038,0.0015,-0.0053,0.0082,-19.2
0.418,-0.0015,0.003,-0.0046,0.0067,-19.4
0.419,-0.0008,0.003,-0.0053,0.0157,-19.7
0.42,-0.0008,0.003,-0.0015,0.0262,-20.0
0.421,0.0007,0.0037,-0.0038,0.024,-20.3
0.422,0.0,0.0015,-0.0023,0.0015,-20.5
0.423,-0.0015,-0.0008,-0.0015,-0.0053,-20.8
0.424,-0.0008,-0.0023,-0.0023,-0.006,-21.2
0.425,0.0,-0.0015,-0.0015,-0.0083,-21.4
0.426,0.0,-0.0008,-0.0008,-0.0068,-21.7
0.427,0.0007,0.0022,0.0,-0.0083,-22.1
0.428,0.0015,0.0037,-0.0038,-0.0068,-22.3
0.429,0.0015,0.0045,-0.0075,-0.003,-22.6
0.43,0.0,0.003,-0.006,0.0067,-23.0
0.431,-0.0015,-0.0008,-0.0046,0.0195,-23.2
0.432,-0.0008,-0.0046,-0.0068,0.027,-23.5
0.433,-0.0015,-0.0046,-0.0038,0.0135,-23.8
0.434,0.0007,-0.0075,0.003,0.012,-24.1
0.435,0.0052,-0.0068,0.0142,0.0202,-24.4
0.436,0.0157,-0.003,0.0457,0.0067,-24.7
0.437,0.0337,-0.0015,0.0937,-0.003,-25.0
0.438,0.0465,-0.0008,0.099,-0.0218,-25.3
0.439,0.039,-0.0015,0.0592,-0.0256,-25.6
0.44,0.021,-0.0008,0.0315,-0.0188,-26.0
0.441,0.0082,-0.0015,-0.0008,-0.0256,-26.2
0.442,-0.0075,-0.0053,-0.0263,-0.0256,-26.6
0.443,-0.0165,-0.0053,-0.0503,-0.0195,-26.9
0.444,-0.0278,-0.0015,-0.0713,-0.006,-27.2
0.445,-0.0353,0.0007,-0.075,0.0,-27.5
0.446,-0.039,0.0045,-0.0863,0.003,-27.8
0.447,-0.0443,0.0082,-0.0915,0.0015,-28.1
0.448,-0.0458,0.0082,-0.096,-0.0038,-28.4
0.449,-0.0443,0.0052,-0.0915,0.006,-28.8
0.45,-0.042,-0.0008,-0.084,0.0172,-29.1
0.451,-0.039,-0.0046,-0.075,0.0262,-29.4
0.452,-0.033,-0.0038,-0.066,0.012,-29.7
0.453,-0.0308,-0.0098,-0.057,-0.0023,-30.1
0.454,-0.0256,-0.0143,-0.0473,-0.006,-30.4
0.455,-0.0233,-0.0143,-0.0405,-0.0143,-30.7
0.456,-0.0173,-0.0173,-0.0263,-0.0091,-31.0
0.457,-0.0098,-0.0181,-0.0165,-0.0098,-31.3
0.458,-0.0083,-0.0203,-0.0053,-0.0128,-31.6
0.459,-0.0023,-0.0173,0.003,-0.012,-32.0
0.46,0.0022,-0.0143,0.0082,-0.0165,-32.3
0.461,0.0015,-0.015,0.009,-0.0173,-32.5
0.462,0.006,-0.012,0.0195,0.0007,-32.8
0.463,0.0127,-0.0091,0.0307,0.0307,-33.0
0.464,0.012,-0.0083,0.0232,0.0255,-33.3
0.465,0.0105,-0.0075,0.0255,0.009,-33.5
0.466,0.0142,-0.0015,0.0292,0.0075,-33.8
0.467,0.0142,0.0052,0.0285,0.0052,-34.1
0.468,0.0142,0.0105,0.0292,0.015,-34.3
0.469,0.0135,0.0172,0.024,0.0157,-34.6
0.47,0.0112,0.0157,0.0187,-0.0015,-34.8
0.471,0.0105,0.0165,0.0157,-0.0195,-35.1
0.472,0.009,0.0142,0.0112,-0.0293,-35.3
0.473,0.0052,0.0067,0.0045,-0.0315,-35.6
0.474,-0.0008,0.003,-0.0015,-0.0346,-35.8
0.475,-0.003,-0.0015,-0.0053,-0.0188,-36.1
0.476,-0.0023,-0.0068,0.0022,-0.0008,-36.3
0.477,0.0037,-0.0068,0.0142,0.0097,-36.6
0.478,0.0082,-0.0075,0.024,0.018,-36.9
0.479,0.0127,-0.0083,0.0345,0.006,-37.1
0.48,0.0157,-0.006,0.0412,-0.0105,-37.4
0.481,0.0187,-0.0046,0.0517,-0.0181,-37.6
0.482,0.0232,-0.003,0.0532,-0.0256,-37.8
0.483,0.0232,-0.0008,0.051,-0.0315,-38.0
0.484,0.0255,0.0067,0.0532,-0.0158,-38.2
0.485,0.024,0.0097,0.051,0.0015,-38.4
0.486,0.0247,0.009,0.054,0.009,-38.6
0.487,0.0262,0.0105,0.0577,0.009,-38.8
0.488,0.0247,0.0105,0.063,0.0067,-39.0
0.489,0.0285,0.0097,0.063,0.0052,-39.2
0.49,0.0277,0.0075,0.0622,-0.0008,-39.5
0.491,0.0255,0.0067,0.063,0.0015,-39.6
0.492,0.0255,0.0067,0.0592,0.006,-39.9
0.493,0.0217,0.0052,0.0555,0.0067,-40.1
0.494,0.0202,0.003,0.0517,0.0052,-40.3
0.495,0.0195,0.003,0.0457,0.0015,-40.5
0.496,0.0157,0.0037,0.0382,0.0022,-40.7
0.497,0.012,0.003,0.0315,0.0075,-40.9
0.498,0.009,0.0037,0.024,0.012,-41.1
0.499,0.006,0.0015,0.0195,0.0082,-41.3
0.5,0.0052,0.0015,0.0172,0.0097,-41.6
0.501,0.0037,0.003,0.0142,0.0045,-41.8
0.502,0.003,0.0067,0.012,-0.006,-42.0
0.503,0.003,0.0067,0.0105,-0.0068,-42.2
0.504,0.0,0.0037,0.0082,-0.0105,-42.4
0.505,-0.0008,-0.0008,0.0022,-0.0083,-42.6
0.506,-0.0046,-0.003,-0.0023,0.009,-42.8
0.507,-0.0083,-0.0038,-0.0068,0.0232,-43.1
0.508,-0.0098,-0.0046,-0.0105,0.024,-43.2
0.509,-0.0098,-0.0046,-0.012,0.0142,-43.5
0.51,-0.0105,-0.0053,-0.0158,0.0022,-43.7
0.511,-0.0113,-0.0083,-0.0188,-0.0203,-43.9
0.512,-0.012,-0.0068,-0.0181,-0.0428,-44.1
0.513,-0.012,-0.0038,-0.0203,-0.039,-44.3
0.514,-0.012,-0.0038,-0.0195,-0.033,-44.6
0.515,-0.012,0.003,-0.0188,-0.0315,-44.8
0.516,-0.0105,0.0105,-0.0181,-0.0173,-45.0
0.517,-0.0098,0.012,-0.0135,0.0007,-45.2
0.518,-0.0083,0.0135,-0.0128,0.0157,-45.4
0.519,-0.0083,0.0105,-0.012,0.0307,-45.6
0.52,-0.0068,0.0082,-0.0113,0.0517,-45.9
0.521,-0.0083,0.0022,-0.0158,0.0405,-46.0
0.522,-0.0105,-0.0046,-0.0188,0.0202,-46.2
0.523,-0.0105,-0.0046,-0.0225,0.015,-46.4
0.524,-0.0105,-0.0053,-0.0248,0.003,-46.5
0.525,-0.0098,-0.0091,-0.027,-0.0008,-46.7
0.526,-0.0113,-0.0128,-0.0278,-0.0015,-46.9
0.527,-0.0105,-0.015,-0.0278,-0.0015,-47.1
0.528,-0.0105,-0.0165,-0.033,-0.0015,-47.2
0.529,-0.0098,-0.0158,-0.0315,-0.0053,-47.4
0.53,-0.0098,-0.012,-0.033,-0.0075,-47.6
0.531,-0.012,-0.0083,-0.0346,-0.0068,-47.7
0.532,-0.012,-0.003,-0.0346,-0.0083,-47.9
0.533,-0.0128,0.0015,-0.0315,-0.0083,-48.1
0.534,-0.0128,0.0037,-0.0285,-0.0075,-48.2
0.535,-0.0135,0.0067,-0.0293,-0.006,-48.4
0.536,-0.0143,0.0105,-0.027,-0.0046,-48.6
0.537,-0.0128,0.012,-0.0263,-0.0046,-48.8
0.538,-0.012,0.009,-0.0263,-0.0053,-48.9
0.539,-0.0105,0.0052,-0.0233,-0.0046,-49.1
0.54,-0.0075,0.003,-0.0203,-0.003,-49.3
0.541,-0.0038,0.0007,-0.0158,-0.003,-49.4
0.542,-0.0046,0.0007,-0.0135,-0.0015,-49.5
0.543,-0.0038,-0.0008,-0.0128,0.0007,-49.6
0.544,-0.003,-0.003,-0.012,0.0022,-49.8
0.545,-0.006,-0.0068,-0.0105,0.006,-49.9
0.546,-0.0083,-0.0075,-0.0128,0.0052,-50.0
0.547,-0.0083,-0.0105,-0.012,0.0015,-50.1
0.548,-0.0068,-0.0128,-0.012,0.0007,-50.2
0.549,-0.0053,-0.0128,-0.0091,-0.003,-50.4
0.55,-0.0015,-0.0158,-0.0015,-0.0083,-50.5
0.551,-0.0008,-0.012,0.0015,-0.0091,-50.6
0.552,0.0,-0.0083,0.0067,-0.0083,-50.7
0.553,0.0022,-0.0053,0.009,-0.0068,-50.8
0.554,0.003,-0.0008,0.0112,-0.0053,-50.9
0.555,0.0045,0.0007,0.0127,-0.0015,-51.1
0.556,0.0022,0.0007,0.0105,-0.0008,-51.2
0.557,0.0022,0.0015,0.0105,-0.0023,-51.3
0.558,0.0045,0.0022,0.0127,-0.0015,-51.4
0.559,0.0045,0.003,0.012,-0.0023,-51.5
0.56,0.0022,0.0015,0.012,0.0,-51.7
0.561,0.0015,0.003,0.012,0.0,-51.8
0.562,0.0007,0.0037,0.0105,-0.0008,-51.8
0.563,0.0007,0.0007,0.009,0.0,-51.9
0.564,0.0007,0.0007,0.0082,0.0007,-52.0
0.565,0.0007,0.0015,0.0067,-0.0008,-52.1
0.566,0.0015,0.0007,0.0067,0.0,-52.2
0.567,0.0052,-0.0008,0.0075,-0.0008,-52.2
0.568,0.0052,-0.0015,0.0067,-0.0023,-52.3
0.569,0.0045,-0.0008,0.0052,-0.0015,-52.4
0.57,0.0052,0.0015,0.0052,-0.0008,-52.5
0.571,0.0045,0.0052,0.0082,0.0,-52.6
0.572,0.0052,0.0052,0.0105,0.0,-52.7
0.573,0.006,0.0045,0.012,0.0,-52.7
0.574,0.0067,0.0052,0.0112,0.0015,-52.8
0.575,0.0067,0.0045,0.0112,0.0022,-52.9
0.576,0.0052,0.0,0.0112,0.0022,-53.0
0.577,0.0052,-0.0015,0.012,-0.0008,-53.1
0.578,0.0067,-0.0015,0.009,-0.0008,-53.1
0.579,0.0045,-0.0023,0.0082,-0.0015,-53.2
0.58,0.0037,-0.0038,0.0105,-0.003,-53.3
0.581,0.0037,-0.0046,0.0067,-0.003,-53.3
0.582,0.0022,-0.0046,0.0067,-0.0038,-53.4
0.583,0.0015,-0.0053,0.0067,-0.0053,-53.5
0.584,0.003,-0.0053,0.006,-0.0053,-53.6
0.585,0.003,-0.006,0.006,-0.0053,-53.6
0.586,0.0037,-0.0068,0.0022,-0.0046,-53.6
0.587,0.0022,-0.003,0.0045,-0.0046,-53.7
0.588,0.003,-0.003,0.0022,-0.003,-53.8
0.589,0.0015,-0.0023,0.0015,-0.0038,-53.9
0.59,0.0015,-0.0008,0.0045,-0.0023,-53.9
0.591,0.0015,0.0007,0.003,-0.0008,-54.0
0.592,-0.0008,0.0015,0.003,-0.0008,-54.0
0.593,0.0,0.003,0.0022,0.0007,-54.1
0.594,0.0015,0.0045,0.0015,0.0,-54.2
0.595,0.0022,0.003,0.003,0.0007,-54.2
0.596,0.0022,0.0045,0.0015,-0.0008,-54.3
0.597,0.0015,0.0022,0.0015,0.0007,-54.4
0.598,0.0007,0.003,0.0022,0.0015,-54.4
0.599,0.0015,0.0045,0.0007,0.0015,-54.5
0.6,0.0015,0.0015,0.0045,0.0015,-54.6
0.601,0.0015,-0.0015,0.0067,0.0022,-54.6
0.602,0.0,-0.0015,0.0067,0.0015,-54.6
0.603,-0.0008,-0.003,0.0082,0.0,-54.6
0.604,-0.0008,-0.003,0.0082,0.0,-54.6
0.605,-0.0008,-0.0015,0.0082,-0.0015,-54.6
0.606,-0.0008,-0.003,0.0037,-0.003,-54.6
0.607,-0.0015,-0.0046,0.003,-0.003,-54.6
0.608,-0.0008,-0.0046,0.003,-0.0038,-54.7
0.609,-0.0008,-0.0038,0.0007,-0.0046,-54.7
0.61,0.0007,-0.003,0.0,-0.0038,-54.7
0.611,0.0007,-0.003,0.0007,-0.0023,-54.7
0.612,0.0007,-0.0015,0.0022,0.0,-54.7
0.613,0.0015,-0.0008,0.0037,-0.0008,-54.8
0.614,0.0,0.0007,0.0067,-0.0008,-54.8
0.615,0.0015,0.0,0.009,-0.0008,-54.8
0.616,0.0022,0.0007,0.0082,-0.0008,-54.8
0.617,0.0067,0.003,0.009,0.0007,-54.8
0.618,0.0067,0.003,0.009,0.0007,-54.8
0.619,0.0045,0.0037,0.009,0.0015,-54.9
0.62,0.0045,0.003,0.0045,0.0007,-54.9
0.621,0.0015,0.0015,0.003,-0.0008,-54.9
0.622,0.003,0.003,0.0052,-0.0015,-54.9
0.623,0.003,0.0007,0.0022,-0.0015,-54.9
0.624,0.0015,0.0007,0.003,-0.0015,-54.8
0.625,0.0015,0.0007,0.003,-0.0023,-54.8
0.626,0.003,0.0007,0.0045,-0.0015,-54.8
0.627,0.0045,-0.0008,0.0082,-0.0008,-54.8
0.628,0.003,-0.0008,0.009,-0.0015,-54.8
0.629,0.003,-0.0008,0.0097,-0.0015,-54.7
0.63,0.003,-0.003,0.0082,-0.0008,-54.7
0.631,0.003,-0.0015,0.0082,-0.0008,-54.7
0.632,0.0007,-0.0015,0.0075,-0.003,-54.7
0.633,0.0007,-0.003,0.0075,-0.003,-54.7
0.634,0.0015,-0.0023,0.0052,-0.003,-54.6
0.635,0.0007,-0.0038,0.0045,-0.0023,-54.6
0.636,0.0,-0.0015,0.0052,-0.0015,-54.6
0.637,-0.0008,-0.0008,0.003,-0.003,-54.6
0.638,-0.0023,-0.0015,0.0015,-0.003,-54.6
0.639,-0.003,-0.0008,-0.0015,-0.003,-54.5
0.64,-0.0046,-0.0008,-0.0008,-0.003,-54.5
0.641,-0.0046,-0.0008,-0.0046,-0.0023,-54.5
0.642,-0.0053,-0.0015,-0.0053,-0.0015,-54.4
0.643,-0.0068,-0.0046,-0.006,-0.0015,-54.4
0.644,-0.0068,-0.003,-0.0098,-0.0008,-54.3
0.645,-0.0068,-0.0008,-0.012,0.0,-54.3
0.646,-0.0068,-0.003,-0.0143,-0.0015,-54.2
0.647,-0.0068,-0.0015,-0.0143,-0.0015,-54.1
0.648,-0.0083,-0.0015,-0.0135,-0.0023,-54.1
0.649,-0.0053,-0.0015,-0.012,-0.003,-54.0
0.65,-0.0053,0.0007,-0.0105,-0.0015,-54.0
0.651,-0.0053,-0.0015,-0.0068,-0.0023,-53.9
0.652,-0.0038,-0.0015,-0.0053,-0.0015,-53.9
0.653,-0.003,-0.0015,-0.0008,-0.0015,-53.8
0.654,-0.0008,0.0,0.0022,-0.0015,-53.7
0.655,0.0,0.0007,0.0,-0.0008,-53.7
0.656,0.0007,0.0,0.0007,-0.0015,-53.6
0.657,0.0007,-0.0015,0.0007,-0.0008,-53.6
0.658,0.0,-0.0015,0.0015,-0.0008,-53.6
0.659,0.0015,-0.0008,0.003,-0.0008,-53.5
0.66,0.0015,-0.0008,-0.0008,-0.0008,-53.4
0.661,0.0007,-0.0008,-0.0023,-0.0023,-53.3
0.662,-0.0023,-0.0015,-0.0008,-0.0015,-53.2
0.663,-0.003,-0.0008,-0.0015,-0.0008,-53.2
0.664,-0.0023,-0.0008,-0.0015,-0.0008,-53.1
0.665,-0.003,-0.0008,-0.0046,-0.0008,-53.0
0.666,0.0,-0.0015,-0.003,0.0,-52.9
0.667,0.0007,-0.0015,-0.0015,0.0,-52.8
0.668,0.0007,-0.0015,-0.0008,0.0007,-52.8
0.669,0.0015,-0.0015,-0.0008,0.0007,-52.7
0.67,0.0015,-0.0015,0.0015,-0.0008,-52.6
0.671,0.003,-0.0015,0.003,-0.0008,-52.5
0.672,0.0045,-0.0023,0.003,0.0,-52.4
0.673,0.003,-0.0008,0.0052,0.0,-52.4
0.674,0.003,0.0,0.0052,0.0,-52.3
0.675,0.003,-0.0008,0.0045,0.0,-52.2
0.676,0.0007,-0.0015,0.003,-0.0008,-52.1
0.677,0.0015,-0.0008,0.003,0.0,-52.0
0.678,0.0007,0.0,0.0037,0.0,-52.0
0.679,-0.0008,0.0,0.0007,0.0,-51.9
0.68,-0.0015,0.0007,0.0007,0.0015,-51.8
0.681,-0.0015,0.0,0.0007,-0.0008,-51.7
0.682,-0.0015,-0.0015,-0.0008,0.0,-51.6
0.683,-0.0015,-0.0015,-0.0015,-0.0008,-51.5
0.684,-0.003,-0.0015,-0.0053,-0.0008,-51.4
0.685,-0.0015,-0.003,-0.0023,-0.0008,-51.3
0.686,-0.0023,-0.003,0.0,-0.0015,-51.3
0.687,-0.0046,-0.0015,-0.0023,0.0,-51.2
0.688,-0.0046,-0.003,-0.0015,-0.003,-51.1
0.689,-0.0046,-0.0015,-0.003,-0.0015,-51.0
0.69,-0.0046,-0.0008,-0.003,-0.0015,-50.9
0.691,-0.003,-0.0008,-0.0008,-0.0015,-50.8
0.692,-0.003,-0.0008,-0.0038,0.0,-50.7
0.693,-0.003,0.0,-0.0053,-0.0008,-50.6
0.694,-0.003,-0.0008,-0.0053,-0.0015,-50.5
0.695,-0.003,-0.0008,-0.0046,0.0,-50.4
0.696,-0.0008,-0.0015,0.0007,0.0,-50.3
0.697,0.0022,-0.0015,0.006,-0.0008,-50.2
0.698,0.0015,-0.0008,0.0037,0.0007,-50.1
0.699,0.0,-0.0008,0.003,0.0,-50.0
0.7,0.0015,0.0007,0.0007,-0.0008,-50.0
0.701,-0.0008,0.0015,-0.0053,-0.0015,-49.8
0.702,-0.0023,-0.0008,-0.0053,-0.0008,-49.7
0.703,-0.0038,0.0007,-0.0068,-0.0008,-49.6
0.704,-0.0053,0.0007,-0.006,-0.003,-49.5
0.705,-0.0038,-0.0008,-0.0075,-0.003,-49.4
0.706,-0.0038,0.0,-0.0098,-0.003,-49.2
0.707,-0.0053,0.0007,-0.0098,-0.003,-49.1
0.708,-0.0053,-0.0008,-0.0113,-0.0008,-49.0
0.709,-0.0046,-0.0015,-0.0083,-0.0023,-48.9
0.71,-0.0015,-0.0015,-0.0068,-0.003,-48.7
0.711,-0.0023,-0.0008,-0.0083,-0.0023,-48.6
0.712,-0.003,-0.0008,-0.0053,-0.003,-48.5
0.713,-0.0023,-0.0015,-0.0038,-0.003,-48.4
0.714,-0.003,-0.0015,-0.0046,-0.003,-48.3
0.715,-0.0023,0.0007,-0.0038,-0.003,-48.2
0.716,-0.0023,0.0015,-0.0023,-0.0046,-48.1
0.717,-0.0015,0.0015,0.0015,-0.0053,-47.9
0.718,0.0007,-0.0015,0.0045,-0.0053,-47.8
0.719,0.0007,-0.0008,0.0022,-0.003,-47.7
0.72,0.0007,-0.0008,0.003,-0.0046,-47.6
0.721,0.0007,-0.0008,0.0015,-0.003,-47.4
0.722,0.0015,-0.0008,0.003,-0.0023,-47.3
0.723,0.0015,-0.0015,0.0037,-0.0046,-47.1
0.724,0.0007,-0.0023,0.0045,-0.003,-46.9
0.725,0.0022,-0.0015,0.0037,-0.0038,-46.8
0.726,0.0037,0.0,0.0045,-0.0046,-46.6
0.727,0.0052,-0.0015,0.0037,-0.003,-46.4
0.728,0.0045,-0.0008,0.0045,-0.0023,-46.3
0.729,0.0022,-0.0008,0.003,-0.0008,-46.1
0.73,0.0022,-0.0015,0.0015,-0.0008,-46.0
0.731,0.0022,-0.0015,0.0037,0.0,-45.9
0.732,0.0015,-0.0015,0.003,-0.0008,-45.7
0.733,0.0007,0.0,0.0052,-0.0015,-45.5
0.734,-0.0008,-0.0008,0.0045,-0.0008,-45.4
0.735,-0.0008,-0.0008,0.006,-0.003,-45.2
0.736,0.0015,0.0,0.0067,-0.0015,-45.0
0.737,0.003,0.0,0.0052,-0.0008,-44.9
0.738,0.003,-0.0008,0.006,-0.003,-44.7
0.739,0.003,-0.0008,0.0045,-0.0015,-44.6
0.74,0.003,0.0,0.0052,-0.0015,-44.4
0.741,0.003,-0.0008,0.0067,-0.0015,-44.2
0.742,0.003,-0.0008,0.006,-0.0015,-44.1
0.743,0.0015,-0.0008,0.0052,-0.0015,-43.9
0.744,0.0022,-0.0015,0.0067,-0.0015,-43.7
0.745,0.0015,0.0,0.0067,-0.0008,-43.5
0.746,0.0015,-0.0008,0.0052,-0.0008,-43.3
0.747,0.003,-0.0008,0.0022,0.0,-43.1
0.748,0.0007,0.0,0.003,0.0007,-42.9
0.749,0.0015,0.0007,0.0067,0.0,-42.8
0.75,0.0015,0.0007,0.0045,0.0015,-42.6
0.751,0.0015,-0.0008,0.0045,0.0007,-42.4
0.752,0.0007,-0.0015,0.0052,-0.0008,-42.2
0.753,-0.0008,0.0,0.0052,-0.0015,-42.0
0.754,0.0007,-0.0008,0.0082,-0.0015,-41.9
0.755,0.0007,-0.0008,0.0052,-0.0015,-41.6
0.756,-0.0008,-0.0015,0.006,-0.0023,-41.4
0.757,0.0015,-0.0015,0.006,0.0,-41.3
0.758,0.0015,0.0,0.0067,0.0022,-41.1
0.759,0.0,0.0007,0.0067,0.0015,-40.9
0.76,0.0015,0.0007,0.0067,0.0015,-40.7
0.761,0.0022,-0.0008,0.006,-0.0015,-40.5
0.762,0.0015,-0.0015,0.0075,-0.003,-40.3
0.763,0.0007,-0.0015,0.0082,-0.003,-40.1
0.764,0.0015,-0.0015,0.0052,-0.003,-39.9
0.765,-0.0008,0.0007,0.0037,-0.0015,-39.6
0.766,-0.0015,0.0,0.0022,-0.0015,-39.5
0.767,-0.0008,-0.0008,0.003,-0.0015,-39.2
0.768,0.0007,0.0,0.0037,0.0007,-39.0
0.769,0.003,-0.0015,0.0052,-0.0008,-38.8
0.77,0.0022,-0.0015,0.0097,-0.0015,-38.6
0.771,0.0052,-0.0008,0.0195,-0.0008,-38.4
0.772,0.0105,-0.0008,0.0277,0.0007,-38.2
0.773,0.0105,-0.0008,0.0165,0.0,-38.0
0.774,0.0022,-0.0008,-0.0008,0.0,-37.8
0.775,-0.0046,-0.0008,-0.0091,0.0,-37.5
0.776,-0.0068,0.0,-0.0165,0.0,-37.4
0.777,-0.0091,0.0007,-0.0143,0.0007,-37.1
0.778,-0.0083,-0.0008,-0.015,0.0,-36.9
0.779,-0.0098,-0.0008,-0.0195,-0.0008,-36.7
0.78,-0.0105,0.0,-0.0158,0.0,-36.5
0.781,-0.0075,-0.0015,-0.0128,-0.0015,-36.3
0.782,-0.0046,-0.0023,-0.0113,-0.003,-36.0
0.783,-0.0046,-0.0015,-0.0083,-0.0046,-35.8
0.784,-0.0038,-0.0008,-0.0075,-0.0046,-35.6
0.785,-0.0038,-0.0008,-0.006,-0.003,-35.3
0.786,-0.0046,-0.0015,-0.0046,-0.003,-35.1
0.787,-0.0015,-0.0008,-0.0023,-0.003,-34.8
0.788,-0.0008,-0.0008,0.0,-0.003,-34.6
0.789,0.0007,-0.0015,0.0007,-0.003,-34.4
0.79,0.0007,-0.0015,0.003,-0.0008,-34.1
0.791,0.003,-0.0008,0.0052,-0.0008,-33.9
0.792,0.0052,-0.0008,0.0075,-0.0008,-33.7
0.793,0.0037,0.0,0.009,-0.0008,-33.4
0.794,0.0045,0.0007,0.0105,-0.0008,-33.2
0.795,0.0045,0.0007,0.0127,0.0007,-32.9
0.796,0.0037,0.0015,0.0082,-0.0015,-32.7
0.797,0.0007,0.0015,0.003,-0.0008,-32.5
0.798,0.0007,0.0015,0.0007,0.0,-32.3
0.799,0.0007,0.0007,0.0,-0.0015,-32.0
0.8,0.0,-0.0015,0.003,-0.0023,-31.8
0.801,0.0015,-0.0008,0.0037,-0.0038,-31.5
0.802,0.0045,-0.0008,0.0067,-0.0023,-31.3
0.803,0.0045,-0.0015,0.0067,-0.003,-31.0
0.804,0.003,-0.0015,0.0052,-0.0008,-30.7
0.805,0.0015,-0.0008,0.0082,0.0015,-30.5
0.806,0.0022,0.0007,0.0082,0.003,-30.2
0.807,0.0007,-0.0008,0.0067,0.0015,-30.0
0.808,-0.0015,0.0,0.0052,-0.003,-29.7
0.809,-0.0015,-0.0015,0.0022,-0.003,-29.5
0.81,-0.0046,-0.0023,-0.0023,-0.0038,-29.2
0.811,-0.0068,-0.0015,-0.0083,-0.0023,-29.0
0.812,-0.0083,-0.0023,-0.0068,-0.0008,-28.7
0.813,-0.0053,-0.0015,-0.003,-0.0015,-28.5
0.814,-0.0015,-0.0023,-0.0015,0.0,-28.2
0.815,-0.0015,-0.0023,-0.0023,-0.0008,-27.9
0.816,-0.0023,0.0,-0.0046,0.0007,-27.7
0.817,-0.0038,0.0,-0.0046,0.0,-27.5
0.818,-0.0023,0.0,-0.0068,0.0007,-27.2
0.819,-0.003,0.0007,-0.0053,0.0015,-27.0
0.82,-0.0015,0.0015,-0.0038,0.0015,-26.7
0.821,-0.0008,0.0015,-0.0023,0.0015,-26.4
0.822,0.0007,0.0007,-0.0015,-0.0008,-26.1
0.823,0.0015,0.0,-0.0008,-0.003,-25.9
0.824,0.0007,-0.0023,0.0015,-0.0046,-25.6
0.825,0.0,-0.0023,0.0022,-0.0023,-25.3
0.826,-0.0015,-0.003,0.0045,-0.003,-25.0
0.827,0.0007,-0.0015,0.0082,-0.0053,-24.8
0.828,0.0015,-0.0008,0.0067,-0.0053,-24.5
0.829,0.0007,-0.003,0.0052,-0.006,-24.2
0.83,0.0015,-0.0008,0.0067,-0.0015,-23.9
0.831,0.0007,-0.0015,0.0052,0.0,-23.7
0.832,0.0007,0.0,0.0045,0.006,-23.4
0.833,-0.0008,0.0015,0.0007,0.0097,-23.1
0.834,-0.0015,0.0007,0.0022,0.0037,-22.9
0.835,0.0,0.0,0.0007,-0.0053,-22.5
0.836,-0.0023,-0.0015,0.0015,-0.0053,-22.3
0.837,-0.0023,-0.0015,0.0022,-0.0046,-22.0
0.838,0.0007,-0.0015,0.003,-0.0068,-21.7
0.839,0.0015,-0.0008,0.0067,-0.0038,-21.5
0.84,0.0015,0.0,0.0045,-0.0015,-21.2
0.841,0.0037,-0.0008,0.003,0.0,-20.9
0.842,0.0045,-0.0008,-0.0008,0.003,-20.7
0.843,0.003,0.0007,-0.003,0.0082,-20.4
0.844,0.0045,0.0007,0.0,0.006,-20.1
0.845,0.003,0.0007,0.0007,0.0007,-19.8
0.846,0.0015,0.0007,-0.0008,-0.0023,-19.5
0.847,-0.0008,-0.0008,0.0007,-0.0046,-19.3
0.848,-0.0015,-0.0053,0.0007,-0.0023,-19.0
0.849,-0.0008,-0.0083,0.0015,-0.0015,-18.7
0.85,0.0007,-0.0046,0.0007,-0.0015,-18.4
0.851,0.0015,0.0007,0.0,-0.0008,-18.1
0.852,0.0007,-0.003,0.0007,-0.003,-17.9
0.853,0.0,-0.0046,0.0007,-0.003,-17.6
0.854,-0.0008,-0.0053,0.0,-0.0046,-17.3
0.855,-0.0015,-0.0046,-0.0046,-0.0008,-17.1
0.856,-0.003,-0.003,-0.0091,0.003,-16.8
0.857,-0.0053,-0.0015,-0.0113,0.003,-16.5
0.858,-0.0053,0.0007,-0.0053,0.0007,-16.2
0.859,-0.0015,-0.0008,0.0052,-0.0046,-15.9
0.86,0.0007,0.0007,0.0097,-0.0083,-15.7
0.861,0.0015,-0.0015,0.0082,-0.012,-15.4
0.862,0.0007,-0.0046,0.006,-0.0143,-15.1
0.863,0.0007,-0.006,0.0067,-0.0128,-14.8
0.864,0.0015,-0.0053,0.0052,-0.0135,-14.5
0.865,0.0037,-0.003,0.0052,-0.0105,-14.2
0.866,0.0067,0.0,0.003,-0.0053,-13.9
0.867,0.0045,0.003,-0.003,-0.0015,-13.6
0.868,-0.0008,0.0052,-0.012,0.0015,-13.3
0.869,-0.0053,0.0045,-0.0165,0.0045,-13.0
0.87,-0.0053,0.0045,-0.0105,0.006,-12.7
0.871,-0.0008,0.0045,-0.0008,0.0067,-12.5
0.872,-0.0008,0.0067,0.0082,0.0105,-12.2
0.873,0.0015,0.0082,0.0097,0.0097,-11.9
0.874,-0.0008,0.003,0.0045,0.0135,-11.6
0.875,-0.003,-0.0046,0.0015,0.012,-11.3
0.876,-0.0015,-0.0008,0.003,0.0082,-11.0
0.877,-0.0008,0.0015,0.0112,0.0082,-10.7
0.878,0.0,0.0,0.0157,0.0045,-10.4
0.879,-0.0038,-0.0008,0.0142,0.0037,-10.1
0.88,-0.0053,-0.0008,0.0135,0.0007,-9.8
0.881,-0.0023,-0.0008,0.0082,-0.0053,-9.5
0.882,-0.0008,-0.003,0.0015,-0.0113,-9.2
0.883,0.0037,-0.0053,-0.006,-0.0143,-8.9
0.884,0.0067,-0.0046,-0.0143,-0.0053,-8.6
0.885,0.0082,0.0007,-0.012,0.0052,-8.2
0.886,0.0105,-0.0015,0.0007,0.0052,-7.9
0.887,0.009,-0.0068,0.0082,0.0052,-7.6
0.888,0.006,-0.0046,0.0022,0.0075,-7.3
0.889,0.0067,0.0015,-0.0023,0.0082,-7.0
0.89,0.009,0.0067,-0.0068,0.0022,-6.6
0.891,0.0112,0.006,-0.0075,-0.012,-6.3
0.892,0.009,0.0015,-0.0023,-0.024,-6.0
0.893,0.0045,-0.0038,0.0022,-0.024,-5.7
0.894,-0.0075,-0.0083,0.0045,-0.012,-5.4
0.895,-0.0165,-0.0105,0.003,-0.0053,-5.0
0.896,-0.024,-0.0083,-0.0015,0.0022,-4.7
0.897,-0.0315,-0.0053,-0.0008,0.0052,-4.4
0.898,-0.027,-0.003,0.0007,0.0082,-4.1
0.899,-0.021,0.0045,0.0007,0.0105,-3.8
0.9,-0.015,0.0157,0.0067,0.0037,-3.5
0.901,-0.0068,0.0075,0.0127,-0.003,-3.2
0.902,0.0,-0.003,0.0165,-0.0053,-3.0
0.903,0.0075,-0.0023,0.0142,-0.0053,-2.7
0.904,0.009,-0.0046,0.0105,-0.0046,-2.5
0.905,0.0112,-0.0008,0.012,-0.0046,-2.3
0.906,0.0165,0.0007,0.0075,-0.003,-2.0
0.907,0.0172,-0.0015,0.006,0.0007,-1.8
0.908,0.018,0.0015,0.0097,0.0015,-1.5
0.909,0.0165,-0.0008,0.0045,0.0015,-1.3
0.91,0.015,0.003,0.0015,-0.0008,-1.0
0.911,0.015,0.006,-0.0015,-0.0015,-0.8
0.912,0.009,0.0082,-0.0015,-0.0008,-0.6
0.913,0.0052,0.003,0.003,-0.0015,-0.3
0.914,0.0052,-0.0015,0.0015,0.0007,-0.1
0.915,0.0067,0.0007,-0.0008,0.0015,0.1
0.916,0.009,0.003,-0.0023,0.003,0.4
0.917,0.0075,0.0037,-0.0083,0.0007,0.6
0.918,0.0007,-0.0015,-0.012,-0.0053,0.9
0.919,-0.003,-0.0098,-0.0068,-0.015,1.1
0.92,-0.0068,-0.012,-0.003,-0.0203,1.3
0.921,-0.0068,-0.0083,0.0082,-0.0143,1.5
0.922,-0.0008,-0.0075,0.0202,-0.0053,1.6
0.923,0.0015,-0.0083,0.012,-0.0008,1.8
0.924,-0.0015,-0.0105,0.009,-0.0015,1.9
0.925,-0.003,-0.0158,0.0105,-0.0038,2.1
0.926,0.0,-0.0165,0.0045,-0.0015,2.2
0.927,-0.003,-0.0105,0.0045,0.0,2.3
0.928,-0.0046,-0.0038,0.0052,0.0022,2.5
0.929,-0.0008,0.0045,0.0045,0.0105,2.6
0.93,0.0045,0.0345,0.006,0.021,2.7
0.931,0.0105,0.0622,0.0097,0.0217,2.9
0.932,0.0127,0.051,0.0157,0.0142,3.0
0.933,0.009,0.0135,0.0195,0.009,3.1
0.934,0.0007,-0.0053,0.021,0.0015,3.3
0.935,-0.0068,-0.0083,0.0225,-0.0083,3.5
0.936,-0.0038,-0.0143,0.024,-0.012,3.6
0.937,0.0045,-0.0181,0.0195,-0.0188,3.7
0.938,0.003,-0.03,0.0075,-0.0256,3.9
0.939,-0.0015,-0.042,0.0067,-0.0256,4.0
0.94,-0.0015,-0.0473,0.009,-0.0181,4.1
0.941,0.0007,-0.0465,0.0037,-0.0098,4.2
0.942,0.0022,-0.0293,-0.0015,-0.0083,4.3
0.943,0.0052,-0.0105,-0.0143,-0.0083,4.3
0.944,0.0082,-0.0083,-0.0203,-0.006,4.4
0.945,0.0082,-0.012,-0.0195,0.0007,4.5
0.946,0.0052,-0.0008,-0.015,0.012,4.5
0.947,-0.0113,0.027,-0.0091,0.0195,4.6
0.948,-0.0233,0.0465,-0.0075,0.0195,4.7
0.949,-0.027,0.0487,-0.0083,0.0165,4.7
0.95,-0.0263,0.0555,-0.0091,0.0142,4.8
0.951,-0.0158,0.0397,-0.0113,0.0142,4.9
0.952,-0.0046,0.0247,-0.0091,0.0165,4.9
0.953,0.0067,0.0135,-0.0091,0.0112,5.0
0.954,0.0075,-0.0015,-0.0128,0.0142,5.0
0.955,0.003,0.0165,-0.0143,0.0195,5.1
0.956,-0.0068,0.0345,-0.015,0.015,5.2
0.957,-0.0195,0.0352,-0.012,0.0052,5.3
0.958,-0.0181,0.012,-0.015,-0.0083,5.3
0.959,-0.0143,-0.0008,-0.0143,-0.0158,5.4
0.96,-0.0068,-0.0091,-0.0098,-0.0203,5.4
0.961,-0.0008,-0.021,-0.0091,-0.0203,5.4
0.962,-0.0046,-0.0248,-0.006,-0.021,5.4
0.963,-0.0015,-0.0346,-0.003,-0.0203,5.4
0.964,0.0007,-0.024,0.0045,-0.015,5.4
0.965,0.0007,-0.0181,0.0015,-0.0135,5.4
0.966,0.0022,-0.0105,-0.003,-0.0075,5.4
0.967,0.0,-0.0053,-0.0053,-0.0046,5.3
0.968,0.003,-0.003,-0.0068,-0.0008,5.3
0.969,0.0045,-0.0046,-0.012,0.0007,5.3
0.97,0.0052,-0.0091,-0.0181,0.003,5.3
0.971,0.0075,-0.0046,-0.0143,0.012,5.3
0.972,0.0067,-0.0008,-0.0083,0.0142,5.3
0.973,0.0007,-0.003,-0.0008,0.0105,5.3
0.974,-0.003,-0.0053,0.0052,0.0037,5.2
0.975,-0.0015,-0.0038,0.0127,-0.003,5.2
0.976,0.0022,-0.0038,0.0187,-0.0053,5.2
0.977,0.0052,-0.0046,0.024,-0.0046,5.2
0.978,0.006,-0.0068,0.0217,0.003,5.2
0.979,0.0052,-0.006,0.0127,0.0135,5.1
0.98,-0.0008,-0.006,0.0052,0.0045,5.1
0.981,-0.0015,-0.0105,0.0007,-0.0173,5.1
0.982,-0.0015,-0.015,0.009,-0.0308,5.0
0.983,-0.0023,-0.0158,0.0172,-0.0218,5.0
0.984,-0.0008,-0.0105,0.0142,-0.0046,4.9
0.985,-0.0008,-0.003,0.0165,-0.0008,4.9
0.986,0.0015,0.0007,0.0142,-0.0046,4.8
0.987,0.0037,0.0015,0.0112,0.0007,4.8
0.988,0.0015,0.0037,0.0,0.012,4.7
0.989,-0.003,0.009,-0.0128,0.0202,4.7
0.99,-0.0143,0.0127,-0.0143,0.0172,4.6
0.991,-0.0256,0.012,-0.0158,0.006,4.5
0.992,-0.021,0.009,-0.0143,-0.003,4.5
0.993,-0.0128,0.0015,-0.012,-0.0143,4.5
0.994,-0.0046,-0.0083,-0.0113,-0.0225,4.4
0.995,0.0015,-0.0113,-0.0068,-0.0181,4.4
0.996,0.0007,-0.0105,-0.0008,-0.0015,4.3
0.997,0.0015,-0.0128,-0.0046,0.0007,4.2
0.998,0.003,-0.015,-0.0105,-0.003,4.2
0.999,0.0007,-0.012,-0.0195,-0.003,4.1
1.0,-0.0008,-0.0053,-0.0248,-0.0158,4.0
1.001,0.003,-0.0008,-0.024,-0.015,4.0
1.002,0.0045,-0.0008,-0.0143,-0.0083,3.8
1.003,0.006,0.0007,0.0082,-0.0023,3.7
1.004,0.018,0.0105,0.0202,0.0127,3.6
1.005,0.0195,0.0142,0.018,0.0262,3.5
1.006,0.009,0.0105,0.0112,0.024,3.3
1.007,-0.003,0.0052,-0.0038,0.0112,3.2
1.008,-0.0165,0.0022,-0.0188,0.018,3.1
1.009,-0.0248,0.0022,-0.0256,0.0277,3.0
1.01,-0.0233,0.0067,-0.0218,0.0232,2.8
1.011,-0.0135,0.0075,-0.0075,0.0067,2.7
1.012,-0.0015,0.003,0.0022,-0.0091,2.6
1.013,0.0037,-0.0053,0.0075,-0.0256,2.5
1.014,0.0,-0.0233,0.0112,-0.0503,2.3
1.015,0.0022,-0.0368,0.0142,-0.0765,2.2
1.016,0.003,-0.0413,0.0187,-0.0915,2.1
1.017,0.003,-0.0428,0.027,-0.0833,1.9
1.018,0.0105,-0.0465,0.0255,-0.0668,1.8
1.019,0.009,-0.0428,0.0172,-0.042,1.7
1.02,0.0052,-0.0256,0.0187,-0.0181,1.5
1.021,0.0105,-0.0113,0.0202,0.0022,1.6
1.022,0.021,-0.0023,0.018,0.018,1.6
1.023,0.0195,0.0232,0.0202,0.0337,1.6
1.024,0.0067,0.0622,0.0165,0.0457,1.6
1.025,-0.003,0.069,0.006,0.0457,1.7
1.026,-0.0075,0.0555,0.0,0.0495,1.7
1.027,-0.0053,0.0495,-0.006,0.0555,1.7
1.028,-0.003,0.0195,-0.0098,0.0472,1.8
1.029,-0.0105,0.0165,-0.0195,0.048,1.8
1.03,-0.0256,0.0562,-0.0315,0.0592,1.8
1.031,-0.0383,0.0675,-0.0443,0.042,1.8
1.032,-0.0503,0.0277,-0.0465,0.0135,1.8
1.033,-0.0473,-0.0128,-0.0383,-0.0008,1.9
1.034,-0.021,-0.0158,-0.027,-0.0128,1.9
1.035,0.0105,-0.015,-0.0046,-0.0083,1.9
1.036,0.036,-0.012,0.018,0.0007,2.0
1.037,0.0517,-0.0098,0.0442,0.0007,2.0
1.038,0.0532,-0.0158,0.051,0.0052,2.0
1.039,0.042,-0.0158,0.0315,0.0067,2.0
1.04,0.0292,-0.0143,0.0165,-0.0015,2.1
1.041,0.009,-0.0143,0.0045,-0.0046,2.1
1.042,-0.0053,-0.0158,-0.0008,0.0037,2.1
1.043,-0.0053,-0.0278,-0.003,0.0052,2.1
1.044,-0.0091,-0.024,-0.0023,-0.0038,2.1
1.045,-0.0053,-0.0075,0.0127,-0.003,2.2
1.046,-0.003,-0.015,0.021,-0.0015,2.2
1.047,-0.0015,-0.0225,0.0217,-0.0046,2.2
1.048,0.0082,-0.0203,0.0195,-0.0195,2.2
1.049,0.0135,-0.003,0.0187,-0.0405,2.2
1.05,0.0195,0.0112,0.0202,-0.03,2.2
1.051,0.0195,0.0232,0.0232,-0.0105,2.2
1.052,0.0165,0.0277,0.024,0.0172,2.2
1.053,0.012,0.0127,0.0187,0.0315,2.3
1.054,0.0007,0.0142,0.0135,0.0045,2.3
1.055,-0.0053,0.0135,0.009,-0.0353,2.3
1.056,-0.0083,0.012,-0.003,-0.0706,2.3
1.057,-0.0128,-0.0015,-0.0203,-0.0638,2.3
1.058,-0.0195,-0.0218,-0.0361,-0.042,2.3
1.059,-0.0218,-0.021,-0.048,-0.0315,2.4
1.06,-0.0256,-0.0285,-0.054,-0.0181,2.4
1.061,-0.0293,-0.03,-0.0525,-0.024,2.2
1.062,-0.0278,-0.0256,-0.048,-0.0368,2.0
1.063,-0.0225,-0.0203,-0.0405,-0.0383,1.8
1.064,-0.0158,-0.0083,-0.0278,-0.0181,1.6
1.065,-0.0075,0.003,-0.0158,0.0202,1.4
1.066,-0.0008,0.0127,0.0045,0.0405,1.2
1.067,0.0082,0.0142,0.0232,0.0345,1.0
1.068,0.0165,0.018,0.0292,0.0127,0.8
1.069,0.0172,0.012,0.0352,0.0,0.6
1.07,0.0165,0.0007,0.0345,0.0007,0.4
1.071,0.015,-0.0046,0.0255,0.015,0.2
1.072,0.003,-0.0046,0.0067,0.0397,0.0
1.073,-0.015,0.0015,-0.0173,0.0367,-0.2
1.074,-0.0181,0.0007,-0.0195,0.0165,-0.4
1.075,-0.0091,-0.0023,-0.003,0.0015,-0.6
1.076,0.0052,-0.0015,0.021,-0.0195,-0.8
1.077,0.0195,0.0007,0.0345,-0.0233,-1.0
1.078,0.018,-0.0008,0.0405,-0.0113,-1.2
1.079,0.0127,-0.0023,0.0457,-0.0008,-1.4
1.08,0.021,0.0007,0.045,0.0112,-1.7
1.081,0.03,-0.0008,0.0495,0.0202,-1.9
1.082,0.0337,-0.0038,0.0457,0.0315,-2.2
1.083,0.0337,0.0045,0.0292,0.0307,-2.4
1.084,0.024,0.0195,0.0105,0.0277,-2.7
1.085,0.009,0.0195,-0.0083,0.0247,-3.0
1.086,-0.003,0.015,-0.0165,0.0105,-3.2
1.087,-0.0046,0.009,-0.0195,-0.0091,-3.5
1.088,-0.0105,-0.0015,-0.0225,-0.0075,-3.8
1.089,-0.021,-0.0046,-0.0135,-0.0113,-4.1
1.09,-0.03,-0.0105,0.0022,-0.0181,-4.4
1.091,-0.0315,-0.0135,0.0142,-0.0158,-4.6
1.092,-0.0128,-0.0075,0.0142,-0.0233,-4.9
1.093,0.0052,-0.0046,0.0202,-0.0181,-5.2
1.094,0.0142,-0.0015,0.0195,-0.0195,-5.4
1.095,0.018,-0.0008,0.0127,-0.0173,-5.7
1.096,0.0142,0.0015,0.0105,-0.0075,-6.0
1.097,0.0067,0.0045,0.0082,0.0037,-6.3
1.098,0.0157,0.0022,0.0202,0.0157,-6.5
1.099,0.024,0.0007,0.03,0.0142,-6.8
1.1,0.0157,0.003,0.0307,0.0157,-7.1
1.101,0.003,0.0015,0.0127,0.009,-7.1
1.102,-0.0038,0.0007,-0.0083,-0.0015,-7.1
1.103,-0.0023,0.003,-0.0181,-0.0023,-7.1
1.104,0.0015,0.0045,-0.0195,0.0007,-7.1
1.105,0.0052,0.0037,-0.0098,0.0105,-7.0
1.106,0.0067,0.0105,-0.0098,0.021,-7.0
1.107,0.012,0.0105,-0.0128,0.0262,-7.0
1.108,0.0112,0.0075,-0.021,0.024,-7.0
1.109,-0.0053,0.006,-0.0263,0.0165,-7.0
1.11,-0.0173,0.0015,-0.0195,0.0075,-6.9
1.111,-0.0278,-0.0038,-0.0143,-0.0083,-6.9
1.112,-0.0368,-0.012,-0.0083,-0.0398,-6.9
1.113,-0.033,-0.0195,-0.0015,-0.0525,-6.9
1.114,-0.0293,-0.0225,0.0007,-0.0338,-6.9
1.115,-0.0225,-0.0158,0.0082,-0.0165,-6.9
1.116,-0.0165,-0.006,0.0105,-0.0015,-6.8
1.117,-0.012,0.0,0.003,-0.0015,-6.8
1.118,-0.0091,-0.0008,0.003,-0.0046,-6.8
1.119,-0.0053,0.0007,-0.0015,-0.006,-6.8
1.12,0.0052,0.0007,-0.0091,-0.0068,-6.8
1.121,0.012,0.0007,-0.0165,0.0037,-6.6
1.122,0.018,0.0045,-0.021,0.0112,-6.5
1.123,0.009,0.0045,-0.0128,0.0172,-6.3
1.124,-0.006,0.0015,-0.0053,0.0052,-6.1
1.125,-0.0083,-0.0008,0.0007,-0.0113,-6.0
1.126,-0.0075,-0.0008,0.0007,-0.0128,-5.8
1.127,-0.0053,-0.003,-0.0068,-0.0091,-5.6
1.128,-0.0023,-0.0091,-0.0105,-0.0015,-5.5
1.129,-0.0015,-0.0098,-0.0225,0.0082,-5.3
1.13,-0.0053,-0.0053,-0.024,0.0195,-5.1
1.131,-0.0053,0.0007,-0.0263,0.0292,-5.0
1.132,-0.0068,0.003,-0.0293,0.024,-4.8
1.133,-0.0105,0.0007,-0.024,0.0165,-4.7
1.134,-0.0075,0.0037,-0.024,0.009,-4.5
1.135,-0.0068,-0.0023,-0.0195,-0.0015,-4.3
1.136,-0.0046,-0.0098,-0.0098,-0.012,-4.2
1.137,0.0015,-0.0091,0.0015,-0.0165,-4.0
1.138,0.0045,-0.0046,0.0105,-0.0181,-3.8
1.139,0.0082,-0.0038,0.0135,-0.024,-3.7
1.14,0.0097,-0.0053,0.0187,-0.0293,-3.5
1.141,0.0105,-0.0046,0.024,-0.0256,-3.4
1.142,0.0112,-0.0008,0.0255,-0.0181,-3.3
1.143,0.0105,0.003,0.0202,-0.0105,-3.2
1.144,0.009,0.0045,0.0217,-0.0015,-3.2
1.145,0.012,0.006,0.0217,0.009,-3.1
1.146,0.0105,0.0097,0.0157,0.015,-3.0
1.147,0.0052,0.0105,0.0105,0.015,-2.9
1.148,0.0045,0.0097,0.0105,0.012,-2.8
1.149,0.0045,0.0067,0.0105,0.0067,-2.7
1.15,0.003,0.0007,0.012,0.0,-2.7
1.151,0.0022,-0.006,0.0165,0.0037,-2.6
1.152,0.003,-0.0075,0.0165,0.0082,-2.5
1.153,0.0022,-0.0068,0.0165,0.0,-2.4
1.154,0.003,-0.0068,0.0135,-0.0091,-2.3
1.155,0.0022,-0.0046,0.009,-0.0083,-2.2
1.156,0.0015,-0.003,0.012,-0.0015,-2.2
1.157,0.0022,-0.003,0.0105,-0.012,-2.1
1.158,0.0,-0.0046,0.0082,-0.0158,-2.0
1.159,0.0,-0.0046,0.0045,-0.006,-1.9
1.16,-0.0015,-0.0046,0.0015,-0.0053,-1.8
1.161,-0.0023,-0.0015,-0.0008,0.003,-1.8
1.162,-0.0008,0.0007,0.0015,0.0052,-1.8
1.163,0.0015,0.0015,0.0037,0.003,-1.8
1.164,0.0015,0.0045,0.0007,0.003,-1.8
1.165,-0.0008,0.0052,0.0007,0.0045,-1.7
1.166,-0.0015,0.006,-0.0015,0.0082,-1.7
1.167,-0.0008,0.006,-0.0015,0.0075,-1.7
1.168,-0.0008,0.0045,0.0007,0.0052,-1.7
1.169,-0.0015,0.0037,-0.003,0.0082,-1.7
1.17,-0.0008,0.0022,-0.003,0.0165,-1.6
1.171,-0.0008,0.0052,-0.0015,0.0127,-1.6
1.172,-0.0015,0.0082,-0.0015,0.0067,-1.6
1.173,-0.0023,0.0052,-0.0053,0.0052,-1.6
1.174,-0.003,0.0045,-0.0053,0.0,-1.6
1.175,-0.003,-0.0015,-0.0068,-0.0181,-1.6
1.176,-0.003,-0.0105,-0.0008,-0.03,-1.5
1.177,-0.003,-0.015,0.0015,-0.0158,-1.5
1.178,-0.0046,-0.0158,-0.0038,-0.006,-1.5
1.179,-0.0046,-0.012,-0.006,-0.0143,-1.5
1.18,-0.0053,-0.0105,-0.0068,-0.0233,-1.5
1.181,-0.0046,-0.0083,-0.006,-0.0278,-1.4
1.182,-0.0038,-0.0053,-0.0053,-0.0203,-1.4
1.183,-0.0015,-0.0015,-0.0053,-0.0091,-1.4
1.184,-0.0008,0.0015,-0.0053,-0.0046,-1.4
1.185,-0.0015,0.0007,-0.0083,-0.0008,-1.3
1.186,-0.0023,0.0022,-0.0083,0.0015,-1.3
1.187,-0.0038,0.0045,-0.0091,0.003,-1.2
1.188,-0.0046,0.0045,-0.0091,0.0,-1.2
1.189,-0.003,0.003,-0.0053,0.0067,-1.1
1.19,-0.0015,0.0037,-0.0015,0.0127,-1.1
1.191,-0.0008,0.003,0.003,0.0105,-1.1
1.192,-0.0015,0.0022,-0.0008,0.0082,-1.0
1.193,-0.0038,0.0015,-0.0023,0.0067,-1.0
1.194,-0.0053,0.0,0.0045,0.0052,-0.9
1.195,-0.0023,-0.0008,0.0037,0.0045,-0.9
1.196,0.0022,-0.0008,0.0045,0.0015,-0.9
1.197,0.0067,0.0007,0.0052,-0.0008,-0.9
1.198,0.0067,0.0007,0.0022,-0.0008,-0.8
1.199,0.003,-0.0015,-0.0023,0.0007,-0.8
1.2,0.003,-0.0008,-0.003,-0.0008,-0.7
1.201,0.0037,-0.0015,0.0022,-0.0015,-0.6
1.202,0.0045,-0.0015,0.0045,0.0015,-0.5
1.203,0.0052,-0.0015,0.0015,0.0022,-0.5
1.204,0.0015,-0.0008,0.0007,0.0015,-0.4
1.205,-0.003,0.0007,0.0007,0.0045,-0.3
1.206,-0.0046,0.0007,-0.0046,0.0052,-0.2
1.207,-0.0046,0.0007,-0.0046,0.0015,-0.1
1.208,-0.0008,0.0007,0.0,-0.0008,0.0
1.209,0.0,-0.003,0.003,-0.0015,0.0
1.21,-0.0053,-0.003,0.0015,-0.0083,0.1
1.211,-0.006,-0.003,0.0022,-0.0173,0.2
1.212,-0.0046,-0.0083,0.0022,-0.0143,0.3
1.213,-0.0046,-0.0053,-0.0015,-0.0098,0.4
1.214,-0.0038,-0.0046,-0.0038,-0.0053,0.4
1.215,-0.0046,-0.0023,-0.0083,-0.0015,0.5
1.216,-0.0046,-0.0008,-0.0075,0.0007,0.6
1.217,-0.0038,-0.0023,-0.0091,0.0052,0.7
1.218,-0.0038,-0.0008,-0.0091,0.003,0.8
1.219,-0.003,-0.0015,-0.0053,0.0045,0.9
1.22,-0.0023,0.0,-0.0053,0.0097,0.9
1.221,-0.0015,0.003,-0.0038,0.012,1.0
1.222,0.0007,0.006,-0.0015,0.006,1.1
1.223,0.0037,0.0045,0.0007,-0.0008,1.1
1.224,0.0022,-0.0008,-0.003,-0.0008,1.2
1.225,0.0,-0.0015,-0.0008,0.003,1.3
1.226,0.0,-0.0046,0.0037,0.0052,1.3
1.227,-0.0008,-0.003,0.003,0.0022,1.3
1.228,0.0015,-0.0008,0.006,0.0052,1.4
1.229,0.0037,0.0015,0.0052,0.0022,1.5
1.23,0.0045,0.0022,0.009,-0.0068,1.5
1.231,0.0045,0.0007,0.012,-0.0091,1.6
1.232,0.003,0.0015,0.0112,-0.0143,1.7
1.233,0.0015,-0.0023,0.0105,-0.0263,1.7
1.234,-0.0008,-0.006,0.009,-0.0308,1.8
1.235,-0.0023,-0.0091,0.009,-0.0203,1.8
1.236,0.0,-0.0098,0.0105,-0.0143,1.9
1.237,0.0022,-0.0083,0.003,-0.0143,1.9
1.238,0.0015,-0.0075,-0.0046,-0.0195,2.0
1.239,0.0015,-0.006,0.0007,-0.0233,2.1
1.24,0.0022,-0.006,0.0052,-0.0181,2.1
1.241,0.0037,-0.003,0.0067,-0.0075,2.2
1.242,0.0022,0.0007,0.0045,0.0052,2.2
1.243,0.0022,0.0022,0.003,0.0165,2.2
1.244,0.0015,0.0052,0.003,0.0247,2.2
1.245,0.0007,0.009,0.0015,0.0292,2.2
1.246,-0.0023,0.0082,0.0022,0.024,2.3
1.247,-0.0046,0.0045,0.003,0.0082,2.3
1.248,-0.0046,0.003,0.0007,-0.0023,2.3
1.249,-0.0008,0.003,0.0007,0.0022,2.4
1.25,0.0015,0.0052,0.0052,0.0082,2.4
1.251,0.0037,0.0037,0.0105,-0.003,2.4
1.252,0.0037,0.0015,0.0135,-0.0128,2.5
1.253,0.0,-0.0008,0.0135,-0.0038,2.5
1.254,-0.0053,-0.0015,0.0127,0.003,2.5
1.255,-0.003,-0.0015,0.0127,0.003,2.6
1.256,0.0007,0.0,0.009,0.003,2.6
1.257,0.0052,0.0007,0.0067,-0.0008,2.6
1.258,0.0112,-0.0008,0.0082,-0.0068,2.6
1.259,0.0127,-0.0053,0.0082,-0.012,2.6
1.26,0.0142,-0.006,0.0082,-0.0075,2.7
1.261,0.0127,-0.0075,0.0067,0.0075,2.7
1.262,0.0082,-0.0091,0.0067,0.0157,2.7
1.263,0.0097,-0.0105,0.0067,0.009,2.7
1.264,0.006,-0.0075,0.0052,0.0045,2.8
1.265,-0.0008,-0.003,0.0045,-0.0015,2.8
1.266,-0.0053,-0.003,0.003,-0.0053,2.8
1.267,-0.0068,0.0007,0.0015,0.0,2.8
1.268,-0.003,0.003,0.003,0.0007,2.9
1.269,-0.0046,0.0007,0.0105,0.0007,2.9
1.27,-0.003,0.0015,0.0157,0.0007,2.9
1.271,-0.003,0.003,0.0082,0.0022,2.9
1.272,-0.0046,0.003,-0.0008,0.0037,2.9
1.273,0.0007,0.0052,-0.0098,0.0007,3.0
1.274,-0.0046,0.0037,-0.0158,0.0,3.0
1.275,-0.0068,0.0022,-0.0128,0.0,3.0
1.276,-0.0053,0.0022,-0.0113,-0.0008,3.0
1.277,-0.0068,0.0015,-0.0098,-0.0008,3.1
1.278,-0.006,0.0045,-0.0128,0.0,3.1
1.279,-0.006,0.003,-0.015,-0.0008,3.1
1.28,-0.0046,0.0007,-0.0143,-0.0015,3.1
1.281,-0.0038,0.0015,-0.0143,-0.0008,3.1
1.282,-0.0023,0.0015,-0.0091,-0.0008,3.1
1.283,0.0007,0.0,-0.0083,0.0015,3.1
1.284,0.0015,-0.003,-0.0046,-0.0015,3.2
1.285,0.0082,-0.003,0.0007,-0.0046,3.2
1.286,0.0165,-0.0015,0.0052,-0.003,3.2
1.287,0.0172,-0.0015,0.0052,-0.0046,3.2
1.288,0.0142,-0.0015,-0.0008,-0.0053,3.3
1.289,0.0075,0.0,0.0015,-0.0053,3.3
1.29,-0.0015,-0.0015,0.0045,-0.0105,3.3
1.291,-0.0068,-0.0053,0.0015,-0.015,3.3
1.292,-0.0091,-0.0053,-0.0015,-0.012,3.3
1.293,-0.003,-0.0015,-0.0068,-0.0083,3.4
1.294,0.0007,-0.0008,-0.0083,-0.0038,3.4
1.295,-0.006,-0.0008,-0.0046,-0.003,3.4
1.296,-0.0158,-0.0023,-0.0008,-0.0008,3.4
1.297,-0.0143,-0.0015,0.003,0.0015,3.5
1.298,-0.003,0.0007,0.0052,0.003,3.5
1.299,0.0075,0.003,0.006,0.003,3.5
1.3,0.0127,0.006,0.0097,0.0067,3.5
1.301,0.009,0.006,0.0127,0.0082,3.5
1.302,0.0015,0.0045,0.012,0.0007,3.5
1.303,-0.0091,0.0015,0.0142,-0.003,3.6
1.304,-0.021,-0.003,0.0142,-0.0023,3.6
1.305,-0.0165,-0.0038,0.0105,-0.0113,3.6
1.306,-0.0105,-0.0015,0.0052,-0.0225,3.6
1.307,-0.0075,-0.003,-0.0008,-0.0233,3.6
1.308,-0.003,-0.0015,-0.0053,-0.0135,3.6
1.309,-0.0023,0.0007,-0.0068,-0.0075,3.6
1.31,-0.003,-0.003,-0.0053,0.0007,3.6
1.311,-0.012,-0.0075,-0.0105,0.0172,3.6
1.312,-0.0203,-0.0083,-0.012,0.0142,3.6
1.313,-0.0225,-0.0098,-0.0098,0.0097,3.6
1.314,-0.0188,-0.0068,-0.0083,0.0142,3.7
1.315,-0.0068,-0.0046,-0.0053,0.003,3.7
1.316,0.0045,-0.0068,-0.0098,0.0015,3.7
1.317,0.0157,-0.0038,-0.0165,0.0015,3.7
1.318,0.027,0.0,-0.0135,-0.0038,3.7
1.319,0.0292,0.0015,-0.0083,-0.0008,3.7
1.32,0.0315,0.0037,-0.0068,0.0007,3.7
1.321,0.0337,-0.0023,-0.0015,0.0015,3.7
1.322,0.0352,-0.0008,0.0052,0.0015,3.8
1.323,0.0165,-0.0015,0.0105,0.0007,3.8
1.324,-0.0075,-0.0008,0.012,0.003,3.8
1.325,-0.0098,0.0015,0.0105,0.0007,3.8
1.326,-0.0091,-0.0008,0.0052,0.0007,3.8
1.327,-0.0068,0.0015,0.0052,0.0007,3.8
1.328,-0.0008,0.0015,0.006,-0.0038,3.9
1.329,0.0007,0.0037,0.0037,-0.0075,3.9
1.33,0.0022,0.0015,0.0075,-0.0091,3.9
1.331,0.0015,0.0,0.012,-0.0113,3.9
1.332,0.0015,0.0015,0.0135,-0.006,3.9
1.333,0.0007,0.0,0.0135,-0.0053,4.0
1.334,-0.0008,0.0007,0.0165,-0.0053,4.0
1.335,-0.0015,0.0022,0.0187,0.003,4.0
1.336,-0.0008,0.003,0.0202,0.0037,4.0
1.337,0.003,0.0015,0.0195,0.0015,4.0
1.338,0.0015,0.0022,0.015,0.0007,4.0
1.339,0.0015,0.0022,0.0127,0.0022,4.0
1.34,0.0022,0.0007,0.0105,0.012,4.0
1.341,0.0015,0.003,0.0097,0.0277,4.1
1.342,0.0015,0.0045,0.009,0.0315,4.1
1.343,0.0007,0.0037,0.006,0.0172,4.1
1.344,-0.0015,-0.0015,0.003,0.0022,4.2
1.345,-0.0008,-0.006,0.0022,-0.0091,4.2
1.346,0.0007,-0.0068,0.0015,-0.0158,4.2
1.347,0.0,-0.0083,-0.0008,-0.024,4.3
1.348,-0.0008,-0.0068,0.0007,-0.033,4.3
1.349,-0.0008,-0.0053,0.003,-0.0361,4.4
1.35,-0.0008,-0.003,0.003,-0.0285,4.4
1.351,-0.0008,0.0007,0.0015,-0.0083,4.4
1.352,-0.003,0.003,0.0022,0.009,4.5
1.353,-0.0015,0.0045,0.003,0.0,4.5
1.354,0.0007,0.003,0.0015,-0.0105,4.5
1.355,0.0,-0.0008,0.003,-0.0128,4.5
1.356,0.0,-0.003,0.0007,-0.0083,4.6
1.357,-0.0008,-0.0008,-0.0008,-0.0091,4.6
1.358,-0.0015,-0.0015,0.0007,-0.0233,4.7
1.359,-0.0023,-0.0053,-0.0023,-0.0203,4.7
1.36,-0.0015,-0.003,-0.003,-0.0098,4.7
1.361,0.0,0.0007,0.0007,-0.0008,4.7
1.362,0.0007,-0.0023,0.0,0.006,4.8
1.363,-0.0008,-0.0068,-0.003,0.0187,4.8
1.364,-0.0008,-0.0046,-0.0015,0.0247,4.8
1.365,0.0,0.0007,-0.0053,0.0285,4.8
1.366,-0.0015,0.0015,-0.0068,0.0292,4.9
1.367,-0.0046,0.0007,-0.0046,0.0232,4.9
1.368,-0.0046,0.0015,-0.0068,0.0172,4.9
1.369,-0.0046,0.0007,-0.0083,0.0045,4.9
1.37,-0.0046,-0.0015,-0.0083,-0.0038,4.9
1.371,-0.0038,0.0007,-0.0091,-0.0135,4.9
1.372,-0.0053,0.0015,-0.0075,-0.0091,4.9
1.373,-0.0046,0.0007,-0.0053,-0.0015,5.0
1.374,-0.0046,-0.0008,-0.0046,-0.0008,5.0
1.375,-0.0053,0.0015,-0.006,0.0052,5.0
1.376,-0.003,0.0022,-0.0068,0.0067,5.0
1.377,-0.0008,0.0037,-0.0053,0.0105,5.1
1.378,0.0015,0.0045,-0.0038,0.012,5.1
1.379,0.0,0.0015,-0.003,0.0165,5.1
1.38,0.0,0.0015,-0.0046,0.0105,5.1
1.381,-0.0008,-0.0008,-0.0053,-0.0046,5.1
1.382,-0.0015,-0.0008,-0.0053,-0.0158,5.1
1.383,-0.0008,-0.003,-0.0068,-0.0308,5.2
1.384,-0.003,-0.006,-0.0075,-0.0263,5.2
1.385,-0.0038,-0.0046,-0.0075,-0.0165,5.2
1.386,-0.0046,-0.0046,-0.0068,-0.021,5.2
1.387,-0.0046,-0.006,-0.0091,-0.0158,5.2
1.388,-0.0046,-0.006,-0.0075,-0.0091,5.2
1.389,-0.0038,-0.0038,-0.0053,-0.0068,5.2
1.39,-0.0008,-0.003,-0.006,-0.0023,5.2
1.391,-0.0008,-0.0008,-0.0046,0.0007,5.2
1.392,-0.0008,0.003,-0.0053,0.0097,5.2
1.393,-0.0008,0.003,-0.0038,0.0075,5.3
1.394,-0.003,0.0045,-0.003,0.003,5.3
1.395,-0.0038,0.003,-0.0015,0.0052,5.3
1.396,-0.0015,0.0015,0.0007,0.0045,5.3
1.397,-0.0008,-0.0008,-0.0015,0.003,5.3
1.398,-0.0008,-0.0008,-0.0008,0.0105,5.3
1.399,0.0007,-0.003,0.003,0.0195,5.3
1.4,0.0015,-0.0075,0.0037,0.003,5.3
1.401,0.0007,-0.0105,0.0015,-0.0128,5.3
1.402,0.0007,-0.0113,0.003,-0.0128,5.3
1.403,0.0007,-0.0083,0.0045,-0.0195,5.3
1.404,0.0015,-0.0068,0.006,-0.0113,5.4
1.405,0.0037,-0.0023,0.0067,-0.0008,5.4
1.406,0.0037,0.0015,0.006,-0.0008,5.4
1.407,0.003,0.0,0.006,-0.0008,5.4
1.408,0.003,-0.0008,0.003,-0.0008,5.4
1.409,0.003,-0.0015,0.0022,0.003,5.5
1.41,0.0022,-0.0015,0.0045,0.0045,5.5
1.411,0.0007,0.0,0.0052,0.0075,5.5
1.412,0.0007,0.0007,0.0052,0.009,5.5
1.413,-0.0015,0.0015,0.0067,0.0082,5.5
1.414,-0.0008,0.0015,0.009,0.0007,5.6
1.415,0.0022,0.0007,0.009,-0.0053,5.6
1.416,0.0022,0.0007,0.0112,-0.0053,5.6
1.417,0.0052,0.0007,0.012,-0.0023,5.6
1.418,0.0052,0.0015,0.009,0.003,5.6
1.419,0.0045,0.0015,0.0082,-0.0008,5.7
1.42,0.0045,0.0015,0.006,-0.0046,5.7
1.421,0.0045,0.0022,0.0052,0.0015,5.7
1.422,0.0052,0.0045,0.0067,0.012,5.7
1.423,0.0037,0.006,0.0052,0.018,5.8
1.424,0.0022,0.0067,0.0045,0.0165,5.8
1.425,0.0022,0.0105,0.0045,0.0135,5.8
1.426,0.0007,0.0067,0.003,0.0097,5.8
1.427,-0.0008,0.0037,0.0022,-0.0068,5.8
1.428,-0.0023,0.0015,0.003,-0.0195,5.8
1.429,-0.0038,-0.0015,0.0037,-0.0278,5.9
1.43,-0.0046,-0.0046,0.003,-0.033,5.9
1.431,-0.0046,-0.0083,0.0015,-0.0346,5.9
1.432,-0.0038,-0.012,-0.0015,-0.0233,6.0
1.433,-0.0046,-0.0105,-0.003,-0.0046,6.0
1.434,-0.0053,-0.0075,-0.0023,-0.003,6.0
1.435,-0.006,-0.006,-0.003,-0.0038,6.0
1.436,-0.0053,-0.003,-0.0015,0.0007,6.1
1.437,-0.0053,-0.0008,0.0007,0.0045,6.1
1.438,-0.0038,0.0007,0.0015,0.006,6.1
1.439,-0.003,0.0007,0.0015,0.0022,6.1
1.44,-0.0053,0.0007,0.0007,-0.0008,6.2
1.441,-0.0038,0.0007,0.0007,-0.0008,6.2
1.442,-0.0023,0.0015,0.0007,0.0,6.2
1.443,-0.0023,0.0022,-0.0015,-0.0015,6.2
1.444,-0.0008,0.0015,-0.0015,-0.0015,6.2
1.445,-0.0015,0.0015,-0.0015,-0.0015,6.3
1.446,-0.0023,0.0,-0.0046,-0.003,6.3
1.447,-0.0038,0.0,-0.0075,-0.0023,6.3
1.448,-0.003,0.0,-0.0075,0.0045,6.3
1.449,-0.0008,-0.0008,-0.0046,0.0067,6.3
1.45,0.0015,0.0007,-0.003,0.003,6.3
1.451,0.0007,0.0007,0.0007,0.0022,6.3
1.452,0.0,-0.0008,0.0045,0.0015,6.3
1.453,-0.0015,-0.0008,0.0052,-0.0008,6.4
1.454,-0.003,-0.0008,0.0067,-0.0008,6.4
1.455,-0.0008,-0.0015,0.0067,0.0,6.4
1.456,0.0015,-0.0015,0.0067,0.0015,6.4
1.457,0.003,-0.0015,0.0075,0.0007,6.4
1.458,0.0045,-0.0008,0.0075,-0.0008,6.4
1.459,0.0022,0.0007,0.0082,-0.0008,6.5
1.46,0.0022,0.0007,0.0082,0.0007,6.5
1.461,0.0045,-0.0008,0.0067,0.0007,6.5
1.462,0.0045,-0.0008,0.0052,-0.0008,6.5
1.463,0.0037,-0.0015,0.0067,0.0,6.5
1.464,0.0037,-0.003,0.0052,0.0007,6.5
1.465,0.0015,0.0,0.0037,-0.0008,6.5
1.466,0.0007,-0.0008,0.0015,0.0,6.5
1.467,0.0007,-0.0008,0.0015,0.0015,6.5
1.468,-0.0008,-0.0008,0.0015,-0.0008,6.5
1.469,0.0007,-0.0008,-0.0023,0.0,6.5
1.47,0.0007,-0.0008,-0.003,-0.0038,6.6
1.471,0.0,-0.003,-0.0053,-0.0053,6.6
1.472,0.0,-0.0015,-0.0068,-0.0038,6.6
1.473,-0.0015,-0.003,-0.0038,-0.0038,6.6
1.474,-0.0015,-0.0023,-0.0023,-0.003,6.6
1.475,0.0007,-0.0038,0.0,-0.003,6.6
1.476,0.0022,-0.003,0.0007,-0.0015,6.6
1.477,0.0052,-0.0008,0.0015,-0.0015,6.6
1.478,0.0052,-0.0015,0.0022,-0.003,6.6
1.479,0.0052,-0.0015,0.0022,-0.0046,6.6
1.48,0.0045,-0.0015,0.0037,-0.0046,6.6
1.481,0.0015,0.0015,0.0052,-0.003,6.6
1.482,0.0015,0.0007,0.0052,0.0007,6.6
1.483,-0.0008,0.0,0.006,0.003,6.6
1.484,-0.0008,0.0007,0.003,0.003,6.6
1.485,-0.0015,0.0007,-0.0015,0.0022,6.6
1.486,-0.0008,0.0015,-0.003,0.003,6.6
1.487,0.0,-0.0015,-0.0053,0.0052,6.6
1.488,-0.0008,-0.0046,-0.0046,0.0045,6.6
1.489,0.0,-0.0038,-0.0015,0.003,6.6
1.49,-0.0008,-0.003,-0.003,-0.0008,6.6
1.491,-0.0015,-0.003,-0.0053,-0.003,6.6
1.492,-0.0008,-0.0015,-0.006,0.0,6.6
1.493,0.0007,0.003,-0.0038,0.0045,6.6
1.494,0.0,0.0045,-0.0008,0.0082,6.6
1.495,0.0007,0.0037,0.0,0.0097,6.6
1.496,0.0015,0.0037,0.0007,0.0045,6.6
1.497,0.0,0.0015,0.0022,-0.0083,6.5
1.498,0.0,0.0007,0.0,-0.0195,6.5
1.499,0.0,0.0015,-0.0046,-0.027,6.5
1.5,-0.0008,-0.0046,-0.006,-0.039,6.5
1.501,-0.003,-0.0113,-0.0083,-0.0443,6.5
1.502,-0.0015,-0.012,-0.0068,-0.0248,6.5
1.503,-0.0015,-0.006,-0.0068,-0.0128,6.4
1.504,-0.0023,-0.0038,-0.0075,-0.0075,6.4
1.505,-0.0038,-0.0015,-0.0053,0.0127,6.3
1.506,-0.0023,0.0007,-0.0008,0.039,6.3
1.507,0.0,-0.0008,0.0045,0.0405,6.3
1.508,0.0007,-0.003,0.0067,0.03,6.3
1.509,0.0015,-0.0015,0.0082,0.027,6.2
1.51,0.0015,0.003,0.0052,0.018,6.2
1.511,0.0007,0.0015,0.0045,0.0255,6.2
1.512,0.0022,0.0015,0.0075,0.0195,6.1
1.513,0.0015,0.0007,0.006,-0.0173,6.1
1.514,-0.0008,-0.0023,0.003,-0.039,6.0
1.515,-0.003,-0.003,0.003,-0.0218,6.0
1.516,-0.0008,0.0,0.0082,0.0052,6.0
1.517,0.0007,0.0007,0.0105,0.018,5.9
1.518,0.0015,-0.0046,0.0097,0.0277,5.9
1.519,0.0015,-0.0075,0.0082,0.018,5.9
1.52,0.0015,-0.003,0.0082,0.0022,5.8
1.521,0.0015,0.0007,0.0082,-0.0143,5.8
1.522,0.0007,-0.003,0.0082,-0.0368,5.8
1.523,0.0015,-0.006,0.0082,-0.057,5.8
1.524,0.003,-0.0068,0.0075,-0.0525,5.8
1.525,0.0015,-0.0023,0.0082,-0.0218,5.8
1.526,0.003,0.0015,0.0075,-0.0105,5.8
1.527,0.003,0.0015,0.0067,-0.0038,5.8
1.528,0.0022,0.0045,0.0067,0.003,5.7
1.529,0.0022,0.0045,0.0052,0.006,5.7
1.53,0.0015,0.0052,0.003,0.009,5.7
1.531,0.0007,0.006,-0.0008,0.0082,5.7
1.532,0.0,0.0045,0.0,0.0105,5.7
1.533,-0.0015,0.0045,-0.0008,0.009,5.6
1.534,-0.0023,0.0015,0.0,0.0075,5.6
1.535,-0.0023,0.0037,-0.0008,0.0082,5.6
1.536,-0.0008,0.0015,0.0007,0.0082,5.6
1.537,-0.0008,0.0,0.0,0.0067,5.6
1.538,-0.0015,0.0015,-0.0008,0.0097,5.6
1.539,-0.0008,-0.0008,0.0015,0.009,5.5
1.54,-0.0015,0.0007,0.0007,0.0067,5.5
1.541,-0.0015,0.003,0.0015,0.0045,5.5
1.542,0.0,0.0015,0.0022,0.0007,5.5
1.543,0.0,0.0007,-0.0015,-0.0023,5.5
1.544,-0.0015,0.0007,-0.003,-0.0046,5.4
1.545,-0.0015,-0.0008,-0.0046,-0.0068,5.4
1.546,-0.0023,-0.0008,-0.003,-0.0113,5.4
1.547,-0.0015,-0.0023,-0.0008,-0.0113,5.4
1.548,-0.0008,-0.0038,0.0,-0.0068,5.4
1.549,-0.0015,-0.0015,0.0022,-0.0015,5.3
1.55,-0.0008,-0.0008,0.003,-0.0008,5.3
1.551,0.0015,-0.0008,0.0022,-0.0015,5.3
1.552,0.0015,0.0007,0.0007,-0.0023,5.3
1.553,0.0015,0.0015,0.0,-0.0053,5.3
1.554,0.0007,0.003,-0.0015,-0.0068,5.3
1.555,-0.0015,0.0007,0.0007,-0.0075,5.3
1.556,0.0,0.0007,0.0015,-0.0068,5.3
1.557,0.0015,0.0007,0.003,-0.003,5.2
1.558,-0.0008,0.0007,0.0037,0.0015,5.2
1.559,0.0007,-0.0015,0.0007,0.0037,5.2
1.56,-0.003,-0.0083,-0.003,0.0007,5.1
1.561,-0.0046,-0.0098,-0.0046,-0.0038,5.1
1.562,-0.003,-0.0091,-0.0046,-0.0038,5.1
1.563,-0.0023,-0.006,-0.0038,-0.0008,5.1
1.564,-0.0008,-0.003,0.0,0.0015,5.1
1.565,0.0,-0.0023,0.0015,0.0037,5.0
1.566,0.0007,-0.0038,0.0015,0.0007,5.0
1.567,0.0007,-0.0068,-0.0008,0.003,5.0
1.568,0.0007,-0.0046,-0.0008,0.0067,5.0
1.569,0.0,0.0015,-0.0008,0.0015,4.9
1.57,-0.0008,0.0015,0.0,-0.0008,4.9
1.571,-0.0023,0.003,0.0022,-0.0023,4.9
1.572,-0.0015,0.0015,0.0015,-0.003,4.9
1.573,-0.0008,0.0007,-0.0008,-0.003,4.9
1.574,0.0,0.0015,0.0007,-0.0053,4.8
1.575,0.0015,0.0,0.003,-0.0053,4.8
1.576,0.0015,0.0007,0.003,0.0007,4.8
1.577,0.0,-0.0008,0.0022,0.0037,4.8
1.578,0.0,0.0007,0.0022,0.0007,4.7
1.579,0.0015,0.0007,0.003,0.0007,4.7
1.58,0.0007,0.0007,0.003,0.0007,4.6
1.581,0.0022,0.0007,0.003,0.0015,4.6
1.582,0.0022,0.0015,0.0045,0.0045,4.6
1.583,0.0015,0.0015,0.0052,0.0037,4.6
1.584,0.0022,0.0022,0.0045,0.003,4.6
1.585,0.0022,0.0022,0.003,-0.0053,4.5
1.586,0.0015,0.0007,0.0007,-0.0233,4.5
1.587,0.0,0.0007,0.0007,-0.03,4.5
1.588,-0.0008,0.0007,0.0007,-0.0165,4.5
1.589,-0.003,0.0022,0.0007,-0.003,4.5
1.59,-0.0023,0.0037,0.0007,0.0007,4.5
1.591,-0.0015,0.0022,0.0,0.003,4.5
1.592,-0.0008,-0.0008,-0.0008,0.0022,4.4
1.593,0.0007,-0.003,0.0007,0.0067,4.4
1.594,-0.0008,0.0007,0.0022,0.0097,4.4
1.595,-0.0008,0.003,0.0007,0.0157,4.3
1.596,0.0007,0.0015,0.0007,0.03,4.3
1.597,-0.0008,0.0007,0.0007,0.0165,4.3
1.598,-0.003,-0.0046,-0.0008,-0.012,4.3
1.599,-0.0015,-0.006,0.0,-0.0233,4.2
1.6,-0.0023,-0.0105,-0.0015,-0.0233,4.2
1.601,-0.0015,-0.0165,-0.0015,-0.0053,4.2
1.602,-0.0008,-0.0091,0.0015,0.0082,4.2
1.603,-0.0008,-0.0023,0.0015,0.006,4.2
1.604,0.0015,0.003,0.003,0.0052,4.1
1.605,0.0007,-0.0008,0.0015,0.0022,4.1
1.606,-0.0008,-0.0068,-0.0008,0.0045,4.1
1.607,-0.0008,-0.0046,0.0015,0.003,4.1
1.608,0.0007,0.0007,0.0037,0.0,4.1
1.609,0.0015,0.003,0.0037,-0.0023,4.0
1.61,0.0007,0.0,0.0022,-0.003,4.0
1.611,0.0015,0.0,0.0015,-0.0053,4.0
1.612,0.0007,0.0015,0.0007,-0.0083,4.0
1.613,0.0007,0.0022,-0.0038,-0.0105,4.0
1.614,0.0015,0.0015,-0.0015,-0.0143,4.0
1.615,0.0007,0.0022,-0.0015,-0.0135,4.0
1.616,0.0,0.003,0.0,-0.0091,4.0
1.617,0.0,0.003,0.0022,-0.003,3.9
1.618,-0.0008,0.003,0.0037,-0.0053,3.9
1.619,0.0007,-0.0023,0.0045,-0.0105,3.9
1.62,-0.0008,-0.0046,0.0022,-0.0158,3.8
1.621,-0.0015,-0.0046,0.003,-0.0128,3.8
1.622,-0.0008,-0.0015,0.0052,0.0127,3.8
1.623,-0.0008,0.0015,0.0045,0.024,3.8
1.624,0.0,0.003,0.0015,0.012,3.8
1.625,-0.0008,0.0,0.0007,-0.0023,3.7
1.626,-0.003,-0.0023,0.0022,-0.0195,3.7
1.627,-0.003,0.0,0.003,-0.0203,3.7
1.628,-0.0023,0.0007,0.003,-0.0091,3.6
1.629,-0.0015,0.0,0.0022,-0.0105,3.6
1.63,-0.0008,-0.0015,0.0007,-0.0143,3.6
1.631,-0.0008,-0.003,0.0007,-0.0053,3.6
1.632,-0.0008,-0.006,0.0007,0.0067,3.6
1.633,0.0015,-0.0083,0.0022,0.0217,3.5
1.634,0.0015,-0.0068,0.0045,0.0285,3.5
1.635,0.0022,-0.0075,0.003,0.0225,3.5
1.636,0.003,-0.0083,0.0022,0.0195,3.4
1.637,0.0022,-0.0015,0.0007,0.0105,3.4
1.638,0.0015,0.0007,-0.0008,0.0097,3.4
1.639,0.0015,-0.0015,0.0007,0.0157,3.4
1.64,0.0015,0.0007,0.0,0.012,3.3
1.641,0.0007,0.0007,0.0007,0.0045,3.3
1.642,-0.0008,0.0015,-0.0008,0.0015,3.2
1.643,-0.0015,0.0,-0.0015,0.0015,3.2
1.644,-0.0008,0.0007,-0.0015,-0.0008,3.1
1.645,0.0007,0.0007,-0.0008,-0.0046,3.1
1.646,0.0007,0.0007,0.0,-0.0203,3.1
1.647,-0.0008,0.0,-0.0023,-0.0353,3.0
1.648,-0.0015,-0.0008,-0.0008,-0.0263,3.0
1.649,0.0,0.0022,0.0015,-0.0068,2.9
1.65,-0.0015,0.0022,0.0015,-0.0015,2.9
1.651,-0.0015,0.003,-0.0008,0.0022,2.8
1.652,-0.0015,0.0015,0.0,0.003,2.8
1.653,-0.0023,-0.003,0.0,-0.003,2.7
1.654,-0.0015,-0.0046,0.0007,-0.003,2.7
1.655,-0.0008,-0.003,0.0007,-0.0083,2.6
1.656,0.0,-0.0023,0.0007,-0.0128,2.6
1.657,0.0007,-0.0008,0.0007,-0.0128,2.6
1.658,0.0007,0.0037,0.0015,0.0007,2.5
1.659,0.0015,0.003,0.0015,0.009,2.5
1.66,0.0015,0.003,0.0007,0.009,2.4
1.661,0.0,0.0037,0.0007,0.006,2.4
1.662,-0.0008,0.0007,-0.0008,-0.0053,2.3
1.663,-0.0008,-0.0008,-0.0008,-0.0113,2.2
1.664,0.0,0.0015,0.0007,-0.0053,2.2
1.665,0.0,0.0007,0.003,0.0097,2.2
1.666,0.0,-0.0008,0.0022,0.006,2.1
1.667,-0.0015,-0.0053,0.0022,-0.0113,2.0
1.668,-0.0023,-0.006,0.003,-0.0008,2.0
1.669,-0.0008,-0.0053,0.0015,0.0045,1.9
1.67,-0.0023,-0.0068,0.0007,-0.006,1.8
1.671,-0.0015,-0.003,0.003,-0.0105,1.8
1.672,0.0015,-0.0008,0.0037,-0.0068,1.8
1.673,0.0015,-0.0015,0.003,-0.003,1.7
1.674,0.0015,0.0007,0.003,0.0,1.6
1.675,0.003,0.003,0.003,0.0007,1.6
1.676,0.0007,0.003,0.0045,-0.0015,1.5
1.677,0.0015,0.003,0.0045,-0.003,1.5
1.678,0.003,0.0022,0.0037,-0.003,1.4
1.679,0.0015,0.003,0.0022,-0.003,1.3
1.68,0.0015,0.0015,0.0007,-0.0023,1.3
1.681,0.0,0.0007,0.0007,0.0007,1.3
1.682,-0.0015,0.003,0.0037,0.0052,1.2
1.683,-0.0015,0.0037,0.0045,0.0112,1.1
1.684,-0.0008,0.0037,0.0045,0.003,1.0
1.685,0.003,-0.0008,0.0045,-0.015,1.0
1.686,0.0007,-0.0046,0.0037,-0.0083,0.9
1.687,0.0007,-0.0053,0.003,0.003,0.9
1.688,-0.0008,-0.0068,0.0015,0.0037,0.8
1.689,-0.003,-0.0075,0.0045,0.0067,0.7
1.69,-0.0008,-0.0038,0.0022,0.006,0.6
1.691,-0.0015,-0.0053,0.0045,0.012,0.6
1.692,-0.0015,-0.0046,0.0052,0.0097,0.5
1.693,-0.0015,-0.003,0.0045,-0.0008,0.4
1.694,-0.0008,-0.0038,0.0045,-0.0008,0.4
1.695,0.0015,0.0007,0.003,-0.0023,0.3
1.696,0.0007,0.0007,0.0015,-0.0053,0.3
1.697,0.0007,0.003,-0.0008,-0.0075,0.2
1.698,0.0015,0.0045,-0.0015,-0.0143,0.1
1.699,0.0007,0.0015,-0.0008,-0.0158,0.0
1.7,-0.0008,0.0015,-0.0008,-0.0128,0.0
1.701,-0.0015,0.0022,-0.0015,-0.0015,-0.1
1.702,-0.0008,0.0052,-0.0023,0.0127,-0.1
1.703,-0.0023,0.003,-0.0015,0.0217,-0.2
1.704,0.0,0.0015,0.0,0.027,-0.3
1.705,0.0007,0.0067,-0.0008,0.024,-0.4
1.706,0.0015,0.0052,-0.0008,0.012,-0.5
1.707,0.0022,-0.0015,-0.0008,0.0052,-0.5
1.708,-0.003,-0.0053,-0.0023,-0.0053,-0.6
1.709,-0.0008,-0.0083,-0.003,-0.0293,-0.7
1.71,-0.0015,-0.0083,-0.0046,-0.0338,-0.8
1.711,-0.0015,-0.0075,-0.0053,-0.0256,-0.8
1.712,0.0,-0.0098,-0.0068,-0.0225,-0.9
1.713,-0.003,-0.0113,-0.0068,-0.0158,-0.9
1.714,-0.003,-0.0075,-0.0046,0.0,-1.0
1.715,-0.0023,-0.0008,-0.003,0.0135,-1.1
1.716,-0.0015,-0.0008,-0.0046,0.0112,-1.2
1.717,-0.0046,-0.003,-0.0068,-0.0046,-1.3
1.718,-0.0038,-0.0038,-0.0053,-0.0181,-1.4
1.719,-0.0015,-0.0038,-0.0053,-0.0225,-1.4
1.72,-0.003,-0.0083,-0.0068,-0.021,-1.5
1.721,-0.003,-0.012,-0.0046,-0.0023,-1.6
1.722,-0.0015,-0.012,-0.0023,-0.0053,-1.7
1.723,-0.0008,-0.0098,-0.0015,-0.012,-1.8
1.724,-0.0008,-0.0015,-0.0008,-0.003,-1.8
1.725,-0.0008,0.003,0.0015,0.0015,-2.0
1.726,-0.0008,0.0067,0.006,0.006,-2.1
1.727,0.0015,0.0157,0.012,-0.003,-2.2
1.728,0.0045,0.0105,0.0172,0.009,-2.3
1.729,0.0082,0.0022,0.0195,0.0405,-2.3
1.73,0.0082,0.0127,0.0187,0.0585,-2.4
1.731,0.0075,0.0202,0.0172,0.0375,-2.5
1.732,0.0082,0.0157,0.0135,0.0082,-2.6
1.733,0.006,0.0075,0.009,-0.0008,-2.7
1.734,0.0052,0.0007,0.0067,-0.0105,-2.8
1.735,0.0045,-0.0023,0.0045,-0.012,-2.9
1.736,0.003,-0.0053,0.003,-0.0195,-3.0
1.737,0.003,-0.0053,0.0037,-0.0233,-3.1
1.738,0.003,-0.0053,0.0007,-0.0195,-3.2
1.739,0.0015,-0.0053,-0.0008,-0.0105,-3.3
1.74,0.0015,-0.0046,-0.0008,-0.0083,-3.4
1.741,0.0015,-0.0038,-0.0015,-0.0128,-3.5
1.742,0.0007,0.0,-0.0008,-0.0075,-3.6
1.743,0.0,0.0075,-0.0015,0.0082,-3.7
1.744,0.0007,0.0232,-0.0015,0.0142,-3.8
1.745,0.0007,0.0165,-0.0015,0.0045,-3.9
1.746,-0.0008,-0.0075,-0.003,0.0075,-4.1
1.747,-0.0023,-0.0128,-0.0046,0.018,-4.1
1.748,-0.0015,-0.021,-0.0053,0.0172,-4.3
1.749,-0.0053,-0.0346,-0.006,0.0105,-4.4
1.75,-0.0046,-0.0338,-0.0083,0.0075,-4.5
1.751,-0.0046,-0.021,-0.0091,0.0045,-4.6
1.752,-0.0053,-0.003,-0.0091,0.0037,-4.7
1.753,-0.0038,0.0097,-0.0075,0.0045,-4.8
1.754,-0.0053,0.015,-0.0068,-0.0023,-4.9
1.755,-0.006,0.003,-0.0053,0.0052,-5.0
1.756,-0.0038,0.0187,-0.0046,0.0322,-5.1
1.757,-0.0046,0.0532,-0.003,0.042,-5.3
1.758,-0.0053,0.033,-0.0023,0.0165,-5.4
1.759,-0.0053,-0.006,-0.0046,-0.0075,-5.5
1.76,-0.0053,-0.0105,-0.0053,-0.027,-5.6
1.761,-0.0046,-0.0181,-0.006,-0.0495,-5.7
1.762,-0.0038,-0.0105,-0.0046,-0.057,-5.9
1.763,-0.0023,0.0097,0.0,-0.0495,-6.0
1.764,0.0007,0.0195,-0.0008,-0.0428,-6.2
1.765,-0.0015,0.009,-0.0015,-0.0353,-6.3
1.766,-0.0015,-0.0068,0.0015,-0.0083,-6.4
1.767,-0.0008,0.0127,0.0045,-0.003,-6.6
1.768,0.0,0.0007,0.0015,-0.0248,-6.7
1.769,-0.0008,-0.021,0.0015,-0.0436,-6.8
1.77,-0.0008,-0.0218,0.003,-0.0203,-7.0
1.771,-0.0015,-0.0158,0.0,0.0127,-7.2
1.772,-0.003,0.0007,0.0015,0.0202,-7.3
1.773,0.0007,0.0052,0.0082,0.0307,-7.4
1.774,0.0015,0.009,0.0082,0.0277,-7.6
1.775,0.0015,-0.0008,0.012,0.0277,-7.7
1.776,0.0037,-0.006,0.0157,0.0232,-7.8
1.777,0.0052,-0.0053,0.015,-0.0015,-8.0
1.778,0.0045,-0.0135,0.0127,-0.0248,-8.1
1.779,0.0022,-0.0188,0.0157,-0.0405,-8.3
1.78,0.003,-0.0143,0.0165,-0.0195,-8.5
1.781,0.0037,0.0022,0.0105,0.021,-8.6
1.782,0.0037,0.003,0.0105,0.0412,-8.7
1.783,0.0045,0.003,0.012,0.0502,-8.9
1.784,0.0045,0.0097,0.0127,0.0465,-9.1
1.785,0.0052,0.009,0.012,0.042,-9.3
1.786,0.0037,0.0105,0.0097,0.0435,-9.4
1.787,0.0015,0.006,0.0052,0.0255,-9.6
1.788,0.003,-0.0023,0.003,-0.0046,-9.8
1.789,0.0022,-0.0091,0.003,-0.0428,-9.9
1.79,0.0037,-0.0105,0.0015,-0.06,-10.1
1.791,0.0045,-0.0113,0.0052,-0.0488,-10.3
1.792,0.003,-0.012,0.0075,-0.0308,-10.4
1.793,0.0037,-0.0046,0.009,-0.0105,-10.6
1.794,0.0045,0.0015,0.0082,-0.0143,-10.8
1.795,0.0045,0.0,0.0052,-0.0256,-10.9
1.796,0.0037,-0.003,0.003,-0.024,-11.1
1.797,0.003,-0.0038,0.0007,-0.0218,-11.3
1.798,0.0007,-0.0015,0.0015,-0.0091,-11.5
1.799,0.0007,0.0,-0.0008,0.003,-11.6
1.8,-0.0008,0.0007,-0.0015,0.0082,-11.8
1.801,-0.0015,-0.0015,-0.0015,0.0135,-12.0
1.802,-0.0015,-0.003,-0.003,0.0142,-12.2
1.803,-0.0053,-0.0046,-0.0038,0.0075,-12.4
1.804,-0.0053,-0.0046,-0.0046,0.0052,-12.6
1.805,-0.003,0.0007,-0.0053,0.0082,-12.8
1.806,-0.0023,-0.0015,-0.0038,0.009,-13.0
1.807,0.0,-0.0046,-0.0053,0.0142,-13.2
1.808,-0.0015,0.0015,-0.0046,0.0165,-13.4
1.809,-0.003,0.0045,-0.003,0.015,-13.6
1.81,-0.0015,0.006,-0.0023,0.009,-13.8
1.811,0.0007,0.009,-0.0015,0.0067,-14.0
1.812,0.0,0.0082,0.0007,0.0082,-14.2
1.813,0.0,0.0075,0.0015,0.0067,-14.4
1.814,-0.0015,0.0052,-0.003,0.0112,-14.6
1.815,-0.0038,0.0052,-0.0046,0.009,-14.8
1.816,-0.0038,0.009,-0.003,0.0007,-15.0
1.817,-0.0046,0.0097,-0.003,-0.0053,-15.2
1.818,-0.0038,0.009,-0.0008,-0.0015,-15.4
1.819,-0.003,0.009,-0.003,0.0052,-15.6
1.82,-0.0046,0.0082,-0.0023,0.0,-15.8
1.821,-0.0046,0.0067,-0.0015,-0.0091,-16.0
1.822,-0.003,0.0015,-0.0015,-0.0203,-16.3
1.823,-0.0015,-0.0015,-0.003,-0.0195,-16.5
1.824,-0.0015,-0.0046,-0.0046,-0.0091,-16.8
1.825,-0.0008,-0.012,-0.0046,-0.0091,-17.0
1.826,-0.0015,-0.0181,-0.0053,-0.006,-17.2
1.827,-0.003,-0.0158,-0.0046,-0.003,-17.5
1.828,-0.0015,-0.0128,-0.0083,-0.0015,-17.7
1.829,-0.0023,-0.0143,-0.0075,-0.0015,-18.0
1.83,-0.0015,-0.015,-0.0068,-0.0015,-18.2
1.831,-0.0015,-0.0158,-0.0075,-0.0046,-18.5
1.832,-0.003,-0.0195,-0.0098,-0.0068,-18.7
1.833,-0.003,-0.0195,-0.0083,-0.0068,-18.9
1.834,-0.0023,-0.0181,-0.0053,-0.0091,-19.2
1.835,0.0007,-0.0165,-0.0008,-0.0083,-19.4
1.836,0.0015,-0.0135,0.0015,-0.0083,-19.7
1.837,0.0015,-0.0091,0.0007,-0.0091,-19.9
1.838,0.003,-0.0053,0.003,-0.0075,-20.2
1.839,0.0037,-0.003,0.0015,-0.0053,-20.4
1.84,0.003,-0.0008,0.0015,-0.0053,-20.7
1.841,0.003,-0.0015,0.0015,-0.0038,-21.0
1.842,0.0015,0.0007,0.0,-0.0023,-21.2
1.843,0.0007,0.0022,0.0015,-0.003,-21.6
1.844,0.0007,0.0037,0.0052,-0.0008,-21.8
1.845,0.0015,0.0067,0.0105,0.0,-22.1
1.846,0.0015,0.0075,0.0075,0.0007,-22.4
1.847,0.0007,0.0105,0.0075,0.003,-22.7
1.848,0.0015,0.012,0.0067,0.003,-23.0
1.849,0.0015,0.0135,0.0067,0.0067,-23.3
1.85,0.003,0.0165,0.0097,0.0067,-23.6
1.851,0.003,0.0195,0.0097,0.0052,-23.9
1.852,0.0015,0.0157,0.009,0.0052,-24.2
1.853,0.0022,0.0127,0.0082,0.0052,-24.5
1.854,0.0037,0.012,0.009,0.0052,-24.8
1.855,0.0015,0.0105,0.0097,0.003,-25.1
1.856,0.003,0.0127,0.0105,0.0007,-25.4
1.857,0.0037,0.0105,0.0082,0.0007,-25.7
1.858,0.0007,0.0067,0.0052,0.0,-26.0
1.859,0.0007,0.0052,0.0052,0.0022,-26.2
1.86,0.003,0.0045,0.0075,0.0045,-26.6
1.861,0.0052,0.003,0.009,0.0037,-26.8
1.862,0.0052,-0.0015,0.0082,0.0022,-27.1
1.863,0.0015,-0.0053,0.003,0.0015,-27.4
1.864,-0.0008,-0.0091,-0.0023,-0.0008,-27.7
1.865,-0.003,-0.012,-0.0075,-0.0046,-28.0
1.866,-0.0053,-0.0158,-0.0098,-0.0083,-28.3
1.867,-0.0075,-0.0188,-0.0105,-0.0113,-28.5
1.868,-0.0083,-0.015,-0.012,-0.0105,-28.8
1.869,-0.0091,-0.012,-0.0135,-0.0091,-29.1
1.87,-0.0091,-0.0105,-0.0165,-0.0083,-29.4
1.871,-0.0083,-0.0068,-0.0181,-0.0083,-29.7
1.872,-0.0091,-0.0053,-0.0173,-0.0068,-30.0
1.873,-0.0091,-0.0038,-0.0165,-0.0053,-30.3
1.874,-0.0091,-0.0046,-0.0195,-0.003,-30.6
1.875,-0.0091,-0.0068,-0.0188,-0.0015,-30.8
1.876,-0.0075,-0.0053,-0.0181,-0.003,-31.1
1.877,-0.0075,-0.0046,-0.0195,-0.003,-31.4
1.878,-0.0098,-0.0046,-0.0181,-0.0015,-31.7
1.879,-0.0098,-0.0053,-0.015,-0.0008,-32.0
1.88,-0.0068,-0.0046,-0.0143,-0.0015,-32.3
1.881,-0.0083,-0.0023,-0.0128,-0.0008,-32.5
1.882,-0.0083,0.0,-0.0091,-0.0008,-32.8
1.883,-0.0053,-0.0008,-0.0046,0.0007,-33.0
1.884,-0.0015,-0.0015,0.0015,-0.0008,-33.3
1.885,0.0007,-0.0015,0.003,-0.003,-33.5
1.886,-0.0008,0.0007,0.0022,-0.003,-33.8
1.887,-0.0008,0.0022,0.0015,-0.0023,-34.1
1.888,0.0007,0.0045,0.0037,-0.0023,-34.3
1.889,0.0015,0.0052,0.0075,-0.003,-34.6
1.89,0.0045,0.006,0.0082,-0.003,-34.8
1.891,0.0052,0.0052,0.0105,-0.003,-35.1
1.892,0.0052,0.0052,0.0105,-0.003,-35.3
1.893,0.0067,0.0067,0.0157,0.0007,-35.6
1.894,0.0067,0.0045,0.0187,0.0015,-35.8
1.895,0.0082,0.0037,0.0165,-0.0008,-36.1
1.896,0.0082,0.003,0.0165,0.0007,-36.3
1.897,0.0082,0.0015,0.018,0.0015,-36.6
1.898,0.0105,0.0015,0.0165,-0.0008,-36.9
1.899,0.0097,0.0015,0.018,-0.0008,-37.1
1.9,0.009,0.0007,0.0217,-0.0008,-37.4
1.901,0.0105,0.0,0.021,-0.003,-37.6
1.902,0.012,-0.0008,0.0225,-0.0038,-37.8
1.903,0.012,0.0007,0.024,-0.003,-38.0
1.904,0.012,-0.0008,0.024,-0.003,-38.3
1.905,0.012,-0.0023,0.0225,-0.003,-38.5
1.906,0.0097,-0.0015,0.0202,-0.0038,-38.7
1.907,0.0105,0.0007,0.0232,-0.003,-38.9
1.908,0.0105,0.0015,0.024,-0.0015,-39.2
1.909,0.0105,0.003,0.0247,-0.0008,-39.4
1.91,0.0097,0.0037,0.0225,0.0007,-39.6
1.911,0.009,0.0052,0.0202,0.0015,-39.8
1.912,0.0097,0.006,0.018,0.0045,-40.0
1.913,0.0067,0.0067,0.0165,0.003,-40.2
1.914,0.0045,0.0067,0.0165,0.0045,-40.5
1.915,0.0045,0.0045,0.0142,0.0037,-40.7
1.916,0.0045,0.0045,0.012,0.003,-40.9
1.917,0.003,0.0037,0.0075,0.0037,-41.1
1.918,0.0007,-0.0008,0.0075,0.0015,-41.4
1.919,0.0007,-0.0046,0.0082,0.0015,-41.6
1.92,0.0015,-0.0053,0.0082,-0.0008,-41.9
1.921,0.0015,-0.0068,0.0045,-0.0015,-42.0
1.922,-0.0008,-0.0068,0.006,0.0,-42.2
1.923,-0.0008,-0.0068,0.0052,0.0007,-42.3
1.924,-0.0023,-0.006,0.003,-0.0008,-42.5
1.925,-0.0015,-0.003,0.003,0.0,-42.7
1.926,-0.0008,-0.003,0.0,-0.0008,-42.8
1.927,-0.0038,-0.003,-0.0008,-0.0008,-43.0
1.928,-0.0038,-0.0015,-0.0008,0.0015,-43.2
1.929,-0.0023,-0.0008,-0.0008,0.0007,-43.4
1.93,-0.003,-0.0008,-0.0015,0.0007,-43.6
1.931,-0.0015,0.0,-0.0008,-0.0008,-43.7
1.932,-0.003,0.0015,0.0,-0.0008,-43.9
1.933,-0.003,0.003,0.0,0.0015,-44.1
1.934,-0.003,0.0045,-0.0008,0.0007,-44.2
1.935,-0.0046,0.0037,0.0,0.0007,-44.4
1.936,-0.0008,0.0015,-0.0015,0.0007,-44.6
1.937,0.0,0.0015,-0.0046,0.0015,-44.7
1.938,-0.0038,0.0007,-0.0053,0.0007,-44.9
1.939,-0.0046,-0.0015,-0.0053,-0.0008,-45.1
1.94,-0.0053,-0.003,-0.0068,-0.0015,-45.3
1.941,-0.0068,-0.0068,-0.012,-0.0015,-45.4
1.942,-0.0091,-0.0083,-0.0165,-0.0023,-45.5
1.943,-0.0098,-0.0091,-0.0181,-0.003,-45.7
1.944,-0.0083,-0.0098,-0.0181,-0.0053,-45.8
1.945,-0.0068,-0.0091,-0.0181,-0.0046,-45.9
1.946,-0.0075,-0.0068,-0.0181,-0.0046,-46.0
1.947,-0.0068,-0.0038,-0.0181,-0.0046,-46.2
1.948,-0.0083,-0.0038,-0.0173,-0.0046,-46.3
1.949,-0.0083,-0.0046,-0.0181,-0.0046,-46.4
1.95,-0.0091,-0.0046,-0.0181,-0.0038,-46.6
1.951,-0.0083,-0.0046,-0.0203,-0.0023,-46.7
1.952,-0.0083,-0.003,-0.0218,-0.0015,-46.8
1.953,-0.0083,-0.0008,-0.0195,-0.0023,-46.9
1.954,-0.006,0.0015,-0.0158,-0.0015,-47.1
1.955,-0.0053,0.0007,-0.0143,-0.0008,-47.2
1.956,-0.0046,0.0007,-0.0128,0.0007,-47.3
1.957,-0.0046,0.003,-0.0091,0.0,-47.4
1.958,-0.0015,0.003,-0.0068,0.0,-47.6
1.959,-0.003,0.0015,-0.0053,0.0015,-47.7
1.96,-0.0015,-0.0008,-0.0038,0.0,-47.9
1.961,-0.0023,-0.0008,-0.003,-0.0023,-47.9
1.962,-0.003,-0.0008,-0.0008,-0.0038,-48.1
1.963,-0.0015,-0.0023,-0.0008,-0.003,-48.2
1.964,-0.0015,-0.0008,0.003,-0.0015,-48.3
1.965,-0.0008,0.0,0.0045,-0.0008,-48.4
1.966,0.0007,0.0,0.0045,-0.0015,-48.5
1.967,0.0022,0.0015,0.0045,-0.0015,-48.6
1.968,0.003,0.0007,0.0052,-0.0015,-48.7
1.969,0.0022,0.0007,0.0052,-0.0023,-48.9
1.97,0.0022,0.0015,0.003,-0.0023,-49.0
1.971,0.0015,0.0015,0.0067,-0.0015,-49.1
1.972,0.003,0.003,0.0105,-0.0008,-49.2
1.973,0.0045,0.0022,0.0097,0.0,-49.3
1.974,0.0015,0.0015,0.0105,0.0007,-49.4
1.975,0.0022,0.0015,0.0135,-0.0008,-49.5
1.976,0.0022,0.0,0.0105,-0.0008,-49.6
1.977,0.0007,0.0,0.0075,-0.0008,-49.7
1.978,0.0007,0.0007,0.0067,-0.0015,-49.9
1.979,-0.0008,0.0007,0.0037,-0.0015,-50.0
1.98,-0.0008,0.0,0.003,-0.0008,-50.1
1.981,0.0007,0.0007,0.0015,0.0007,-50.2
1.982,0.0,0.0007,0.0,0.0007,-50.3
1.983,-0.0008,0.0007,0.0015,0.0015,-50.4
1.984,0.0007,0.0007,0.0015,0.0007,-50.5
1.985,0.0007,0.0015,0.0015,-0.0015,-50.6
1.986,0.0022,0.0015,0.0037,-0.0023,-50.7
1.987,0.0022,0.0007,0.0022,-0.0008,-50.8
1.988,0.0007,0.0015,0.003,-0.0008,-50.9
1.989,0.0015,0.0007,0.0052,-0.003,-51.0
1.99,0.0052,0.0007,0.0075,-0.003,-51.1
1.991,0.0052,-0.0008,0.0075,-0.0015,-51.2
1.992,0.0052,-0.0008,0.0067,-0.0038,-51.3
1.993,0.0045,-0.0015,0.006,-0.0015,-51.4
1.994,0.0022,-0.0015,0.0067,-0.0015,-51.5
1.995,0.0022,-0.0008,0.003,-0.0023,-51.6
1.996,0.0,-0.0015,-0.0008,-0.0008,-51.7
1.997,-0.0008,-0.0023,0.0,-0.0008,-51.8
1.998,-0.0008,-0.0046,-0.0015,-0.0015,-51.9
1.999,-0.0008,-0.0046,0.0,-0.0015,-52.0
2.0,-0.0015,-0.0046,0.0007,-0.0008,-52.1
2.001,-0.0008,-0.006,0.0,-0.0008,-52.1
2.002,-0.0008,-0.0053,-0.0008,-0.0008,-52.2
2.003,-0.0008,-0.003,0.0007,-0.0015,-52.2
2.004,0.0,-0.0038,0.003,-0.0015,-52.3
2.005,0.0,-0.003,0.0,-0.0015,-52.4
2.006,-0.0008,-0.003,0.0022,-0.0023,-52.4
2.007,0.0007,-0.0046,0.0052,-0.0015,-52.5
2.008,0.003,-0.003,0.0052,-0.003,-52.5
2.009,0.003,-0.003,0.0037,-0.0023,-52.6
2.01,0.0022,-0.0015,0.0015,-0.0008,-52.7
2.011,0.0007,-0.0008,0.0015,-0.0015,-52.7
2.012,0.0007,-0.0015,0.0015,-0.003,-52.8
2.013,-0.0008,0.0015,0.003,-0.003,-52.8
2.014,-0.0008,0.0015,0.0022,-0.0015,-52.9
2.015,-0.0008,0.0007,0.0015,-0.0015,-53.0
2.016,-0.0008,0.0007,0.003,-0.0008,-53.0
2.017,0.0015,0.0007,0.003,0.0015,-53.1
2.018,0.0015,0.0007,0.0045,-0.0008,-53.1
2.019,0.0,0.0,0.003,-0.0023,-53.2
2.02,-0.0008,0.0022,0.0022,-0.0046,-53.3
2.021,0.0015,0.0022,0.0052,-0.003,-53.3
2.022,0.003,0.0015,0.0037,-0.0015,-53.3
2.023,0.0015,0.0,0.006,-0.003,-53.3
2.024,0.003,0.0007,0.0082,-0.0008,-53.3
2.025,0.003,0.0007,0.0052,-0.0023,-53.3
2.026,0.0007,0.0007,0.0067,-0.003,-53.3
2.027,0.0015,0.0015,0.0052,-0.0015,-53.3
2.028,0.0015,-0.0008,0.0052,-0.0008,-53.3
2.029,0.003,-0.0008,0.0052,-0.003,-53.3
2.03,0.0015,-0.0008,0.006,-0.0015,-53.3
2.031,0.0007,-0.0008,0.0082,-0.0008,-53.3
2.032,0.0007,0.0007,0.009,-0.0008,-53.3
2.033,0.0007,0.0007,0.0075,-0.0015,-53.3
2.034,0.0015,0.0007,0.0067,-0.0023,-53.3
2.035,0.0022,-0.0015,0.0082,-0.0015,-53.3
2.036,0.0037,-0.0008,0.0075,-0.0015,-53.3
2.037,0.003,0.0007,0.0067,0.0007,-53.3
2.038,0.0015,-0.0008,0.0052,0.0015,-53.3
2.039,0.0007,-0.0008,0.0045,0.0,-53.3
2.04,0.0007,-0.0008,0.0015,-0.0008,-53.3
2.041,0.0007,0.0,0.0022,-0.0008,-53.2
2.042,-0.0015,-0.0008,0.0007,0.0007,-53.2
2.043,-0.0008,0.0,-0.0015,-0.0008,-53.1
2.044,-0.0008,-0.0008,-0.003,0.0007,-53.1
2.045,-0.0015,-0.0023,-0.0068,0.0015,-53.0
2.046,-0.0015,-0.0015,-0.0083,-0.0008,-53.0
2.047,-0.003,-0.0015,-0.0083,-0.0008,-52.9
2.048,-0.003,0.0015,-0.0068,-0.0015,-52.9
2.049,-0.0038,0.0007,-0.0053,-0.0008,-52.8
2.05,-0.003,0.0007,-0.0075,-0.0008,-52.7
2.051,-0.003,0.0007,-0.0068,-0.0023,-52.7
2.052,-0.0038,-0.003,-0.0083,-0.0015,-52.7
2.053,-0.003,-0.003,-0.0068,-0.0015,-52.6
2.054,-0.0023,-0.003,-0.0083,-0.0023,-52.6
2.055,-0.0038,-0.003,-0.0075,-0.0008,-52.5
2.056,-0.003,-0.0015,-0.0068,-0.0008,-52.5
2.057,-0.0046,-0.003,-0.0083,-0.0008,-52.4
2.058,-0.006,-0.0015,-0.0068,0.0007,-52.3
2.059,-0.0046,-0.0023,-0.0046,0.0,-52.3
2.06,-0.003,-0.0046,-0.0023,-0.0008,-52.2
2.061,-0.0015,-0.0023,0.0,-0.0015,-52.2
2.062,0.0015,-0.0023,0.0007,-0.0015,-52.1
2.063,0.0015,-0.0038,0.0007,-0.0015,-52.0
2.064,0.0007,-0.0046,0.0007,-0.0015,-51.9
2.065,0.0015,-0.0023,0.0007,-0.0015,-51.8
2.066,0.0015,-0.0008,0.0015,-0.0015,-51.7
2.067,0.0015,-0.0008,0.0045,-0.0008,-51.6
2.068,0.0045,0.0,0.0082,-0.0008,-51.5
2.069,0.0052,0.0,0.009,0.0,-51.4
2.07,0.0052,0.0007,0.0127,0.0007,-51.3
2.071,0.006,0.0007,0.0142,0.0,-51.2
2.072,0.0052,0.0,0.0112,-0.0008,-51.1
2.073,0.0045,0.0,0.003,0.0007,-51.0
2.074,0.0007,0.0,-0.003,0.0007,-50.9
2.075,-0.003,0.003,-0.0046,0.0,-50.8
2.076,-0.0046,0.0015,-0.0105,0.0015,-50.7
2.077,-0.0068,0.0015,-0.0128,0.003,-50.6
2.078,-0.0083,0.0015,-0.0135,0.0015,-50.5
2.079,-0.0083,0.0015,-0.0098,-0.0008,-50.4
2.08,-0.0083,0.0,-0.0105,0.0007,-50.4
2.081,-0.0098,-0.0015,-0.0113,-0.0015,-50.2
2.082,-0.0091,-0.0008,-0.0113,-0.0023,-50.1
2.083,-0.0091,-0.0015,-0.0143,-0.0015,-50.0
2.084,-0.0091,-0.003,-0.012,-0.0015,-49.8
2.085,-0.0098,-0.0015,-0.0128,-0.0008,-49.7
2.086,-0.0091,-0.0008,-0.015,-0.0015,-49.5
2.087,-0.0091,-0.0015,-0.0135,-0.0015,-49.4
2.088,-0.0075,-0.0038,-0.0091,-0.003,-49.3
2.089,-0.0046,-0.0015,-0.0075,-0.003,-49.1
2.09,-0.003,-0.0008,-0.0046,-0.0023,-49.0
2.091,-0.0023,-0.0008,-0.0023,-0.0023,-48.9
2.092,-0.0015,0.0,-0.0008,-0.0015,-48.7
2.093,-0.0015,0.0007,-0.0008,-0.0015,-48.6
2.094,-0.0015,-0.0008,-0.0008,-0.0023,-48.5
2.095,-0.0008,-0.0008,0.0015,-0.0008,-48.3
2.096,-0.0008,-0.0008,0.0015,0.0,-48.2
2.097,-0.0008,0.0,0.0045,-0.0015,-48.1
2.098,-0.0008,-0.0008,0.006,-0.003,-47.9
2.099,0.0022,-0.0015,0.0082,-0.003,-47.8
2.1,0.0045,-0.0023,0.0052,-0.0023,-47.7
2.101,0.003,-0.0015,0.0067,-0.0046,-47.5
2.102,0.003,-0.0008,0.0105,-0.0046,-47.3
2.103,0.0037,-0.0015,0.009,-0.0038,-47.2
2.104,0.0045,-0.0015,0.012,-0.0046,-47.0
2.105,0.003,-0.0015,0.0127,-0.003,-46.8
2.106,0.0045,-0.0023,0.0127,-0.0038,-46.7
2.107,0.006,-0.0008,0.0157,-0.0015,-46.5
2.108,0.0067,0.0,0.0142,-0.0015,-46.4
2.109,0.0052,-0.0015,0.012,-0.0046,-46.2
2.11,0.0052,-0.0015,0.0112,-0.0053,-46.0
2.111,0.0052,-0.0015,0.0105,-0.0038,-45.9
2.112,0.0037,-0.0015,0.009,-0.0046,-45.7
2.113,0.0052,-0.0008,0.0075,-0.0046,-45.5
2.114,0.0052,-0.0008,0.0052,-0.003,-45.4
2.115,0.0045,-0.0008,0.0045,-0.0023,-45.2
2.116,0.003,-0.0008,0.0067,-0.0023,-45.0
2.117,0.0045,0.0,0.006,-0.0038,-44.9
2.118,0.0045,0.0,0.0045,-0.003,-44.7
2.119,0.0045,0.0,0.0037,-0.0015,-44.6
2.12,0.003,0.0007,0.003,-0.0008,-44.4
2.121,0.0015,0.0,0.0015,-0.0015,-44.2
2.122,0.0,-0.0008,0.0,0.0007,-44.1
2.123,0.0007,0.0007,0.0007,0.0007,-43.9
2.124,0.0015,-0.0008,0.0007,-0.0008,-43.7
2.125,-0.0008,-0.0008,-0.003,0.0,-43.5
2.126,-0.0008,0.0,-0.003,-0.0008,-43.3
2.127,-0.0015,0.0007,-0.0023,0.0,-43.1
2.128,-0.0023,0.0007,-0.0046,0.0007,-42.9
2.129,-0.0008,-0.0008,-0.0038,0.0007,-42.8
2.13,-0.0015,0.0007,-0.003,0.0007,-42.5
2.131,-0.003,0.0007,-0.0023,0.0007,-42.3
2.132,-0.003,-0.0023,-0.0015,-0.0008,-42.2
2.133,-0.003,-0.0023,-0.0008,-0.0008,-42.0
2.134,-0.0015,-0.0008,0.0015,-0.0015,-41.8
2.135,-0.003,-0.0015,-0.0008,-0.0015,-41.6
2.136,-0.0015,-0.0008,0.0,-0.0023,-41.4
2.137,0.0,-0.0008,0.0007,-0.003,-41.2
2.138,-0.0008,-0.0023,0.0007,-0.0038,-41.0
2.139,0.0015,-0.003,0.003,-0.0046,-40.9
2.14,0.0015,-0.003,0.0015,-0.003,-40.7
2.141,0.0007,-0.0015,0.0015,-0.0046,-40.5
2.142,0.0007,-0.0015,0.0007,-0.0038,-40.3
2.143,0.0007,-0.0046,0.0007,-0.003,-40.1
2.144,0.0015,-0.0038,0.0007,-0.0023,-39.8
2.145,0.0022,0.0007,0.0015,-0.0015,-39.6
2.146,0.003,0.0015,0.0015,-0.003,-39.4
2.147,0.0022,0.0015,0.0015,-0.0046,-39.2
2.148,0.0015,0.0022,0.003,-0.003,-39.0
2.149,0.0007,0.003,0.0037,-0.0008,-38.7
2.15,-0.0008,0.0045,0.0045,0.0007,-38.5
2.151,-0.0008,0.003,0.0045,0.0015,-38.3
2.152,-0.0008,0.003,0.006,0.0015,-38.1
2.153,-0.0008,0.0022,0.0067,0.003,-37.9
2.154,-0.0008,-0.0023,0.0045,0.0045,-37.7
2.155,0.0,-0.0075,0.0052,0.003,-37.5
2.156,-0.0008,-0.0113,0.006,0.0022,-37.3
2.157,0.0,-0.0046,0.0052,0.0022,-37.0
2.158,0.0007,-0.003,0.0052,-0.0023,-36.8
2.159,0.0007,-0.0068,0.0045,-0.0046,-36.6
2.16,0.0015,-0.003,0.0045,-0.003,-36.4
2.161,0.0,0.0007,0.0045,-0.0046,-36.2
2.162,0.0,0.0045,0.0052,-0.003,-35.9
2.163,0.0015,0.0045,0.0052,-0.0038,-35.7
2.164,0.0007,0.0007,0.0015,-0.0046,-35.5
2.165,0.0,-0.0015,0.0022,-0.0053,-35.2
2.166,0.0015,0.0,0.0007,-0.0046,-35.0
2.167,0.0007,0.0,0.0007,-0.0046,-34.7
2.168,0.0015,-0.0023,0.0015,-0.0098,-34.5
2.169,0.0015,-0.0046,-0.0008,-0.0105,-34.2
2.17,0.0007,-0.0083,-0.0015,-0.0091,-34.0
2.171,0.0007,-0.006,-0.0023,-0.0015,-33.8
2.172,0.0007,-0.006,0.0007,0.0045,-33.5
2.173,0.0007,-0.0053,0.0015,0.0165,-33.3
2.174,0.0,-0.0008,0.0015,0.0232,-33.1
2.175,-0.0023,0.0007,0.0,0.012,-32.8
2.176,-0.0015,-0.0023,0.0,-0.003,-32.6
2.177,-0.0008,-0.0008,0.0007,-0.0053,-32.4
2.178,-0.003,0.0105,-0.0008,0.0022,-32.1
2.179,-0.0038,0.018,-0.0015,0.0112,-31.9
2.18,-0.0008,0.0127,0.0015,0.0135,-31.6
2.181,0.0,0.0045,0.0007,0.0052,-31.4
2.182,-0.0015,-0.0008,0.0007,-0.003,-31.1
2.183,-0.0015,-0.003,0.0015,-0.0083,-30.9
2.184,-0.0015,-0.0008,0.0037,-0.0046,-30.6
2.185,-0.0015,0.0052,0.0015,0.003,-30.4
2.186,0.0007,0.0052,0.0007,0.0075,-30.1
2.187,0.0007,0.0,0.0007,0.0045,-29.8
2.188,-0.0015,-0.006,-0.0008,-0.0023,-29.6
2.189,-0.0008,-0.0053,0.0007,-0.006,-29.3
2.19,0.0,-0.0046,-0.0008,-0.0128,-29.1
2.191,0.0,-0.0053,0.0,-0.0158,-28.8
2.192,-0.0015,-0.0053,0.0007,-0.0128,-28.6
2.193,0.0,-0.0068,0.0015,-0.012,-28.4
2.194,0.0007,-0.0075,0.0052,-0.0068,-28.1
2.195,0.0015,-0.0046,0.0037,-0.0015,-27.8
2.196,0.0015,-0.0015,0.0045,-0.0068,-27.6
2.197,0.0,-0.0046,0.0052,-0.0098,-27.3
2.198,0.0,-0.0053,0.0037,-0.0068,-27.0
2.199,-0.0015,-0.0046,0.0045,-0.0068,-26.8
2.2,-0.0008,-0.0046,0.0022,-0.0015,-26.6
2.201,-0.0023,-0.0023,-0.0008,-0.0023,-26.3
2.202,-0.0015,-0.0008,-0.0008,-0.0015,-26.0
2.203,0.0007,0.0,-0.003,-0.0023,-25.7
2.204,0.0007,-0.0008,-0.0023,-0.0038,-25.5
2.205,0.0007,0.0015,0.0,-0.0008,-25.2
2.206,0.0007,0.003,0.003,0.0022,-25.0
2.207,0.0015,0.0015,0.003,0.006,-24.7
2.208,0.0022,0.0022,0.0045,0.0067,-24.4
2.209,0.0015,0.003,0.0037,0.0082,-24.2
2.21,0.0022,0.0045,0.003,0.006,-23.9
2.211,0.0,0.003,0.003,0.0045,-23.7
2.212,-0.0008,0.0022,0.003,0.009,-23.4
2.213,-0.0008,0.0022,0.0015,0.0105,-23.1
2.214,0.0,0.003,0.0007,0.0022,-22.9
2.215,0.0015,0.0015,0.0007,-0.0083,-22.6
2.216,0.0,-0.0015,-0.0008,-0.012,-22.3
2.217,-0.0008,-0.0008,0.003,-0.0083,-22.1
2.218,0.0,-0.0046,0.0037,-0.0053,-21.8
2.219,-0.0023,-0.0091,0.0015,-0.0046,-21.6
2.22,-0.0015,-0.0105,0.0007,-0.0008,-21.3
2.221,-0.0015,-0.0128,-0.0008,-0.003,-21.0
2.222,-0.0008,-0.0105,0.0007,-0.006,-20.7
2.223,-0.003,-0.0053,-0.0008,-0.0068,-20.5
2.224,-0.003,-0.0038,-0.0023,-0.0068,-20.2
2.225,-0.003,-0.0008,-0.0015,-0.0083,-19.9
2.226,-0.003,0.0007,-0.0008,-0.0068,-19.7
2.227,-0.0015,0.0007,-0.003,-0.003,-19.4
2.228,-0.0046,0.0022,-0.0053,0.0007,-19.1
2.229,-0.003,0.0022,-0.0053,0.0037,-18.9
2.23,-0.0015,0.0015,-0.0053,0.003,-18.5
2.231,-0.003,-0.0008,-0.003,-0.0046,-18.3
2.232,-0.0023,-0.006,-0.0008,-0.0128,-18.0
2.233,-0.0015,-0.0083,0.0007,-0.0105,-17.7
2.234,-0.0008,-0.006,-0.0015,-0.0046,-17.5
2.235,0.0015,-0.0053,-0.0053,-0.0015,-17.2
2.236,-0.0015,-0.003,-0.0068,-0.0008,-16.9
2.237,-0.0023,-0.0015,-0.003,0.003,-16.7
2.238,0.0022,0.0,-0.0015,0.006,-16.4
2.239,0.0007,-0.0008,-0.0083,-0.0008,-16.1
2.24,-0.0046,-0.003,-0.012,-0.0008,-15.8
2.241,-0.0046,0.009,-0.0075,0.009,-15.5
2.242,-0.0038,0.036,-0.0008,0.0165,-15.3
2.243,-0.0008,0.0352,0.0067,0.0195,-14.9
2.244,0.003,0.0142,0.0075,0.0135,-14.6
2.245,0.0045,0.0067,0.0075,0.0082,-14.3
2.246,0.0067,0.0045,0.009,0.0052,-14.0
2.247,0.0075,-0.0008,0.0067,-0.0015,-13.7
2.248,0.0052,-0.0008,0.0067,-0.0038,-13.4
2.249,0.0037,-0.0046,0.0067,-0.003,-13.1
2.25,0.0022,-0.0068,0.012,-0.003,-12.8
2.251,0.003,-0.0038,0.0202,-0.0023,-12.5
2.252,0.0052,-0.0008,0.0225,-0.0023,-12.2
2.253,0.0022,-0.0015,0.0187,-0.0068,-11.9
2.254,0.0045,-0.0046,0.0142,-0.0091,-11.6
2.255,0.006,-0.0023,0.0082,-0.0053,-11.3
2.256,0.0067,-0.0015,-0.0015,-0.0038,-11.0
2.257,0.0082,-0.0046,-0.0053,-0.003,-10.7
2.258,0.009,-0.0046,-0.0053,-0.0023,-10.4
2.259,0.0067,-0.0046,-0.0008,-0.003,-10.1
2.26,0.0045,-0.0053,0.0007,-0.0046,-9.8
2.261,0.003,-0.006,-0.0023,-0.003,-9.5
2.262,0.0007,-0.0075,0.0007,-0.0038,-9.1
2.263,-0.003,-0.0068,-0.0068,-0.0038,-8.8
2.264,-0.0038,-0.0015,-0.012,-0.0046,-8.5
2.265,-0.0015,0.0,-0.0128,-0.0008,-8.2
2.266,-0.0053,0.0,-0.0105,0.0,-7.9
2.267,-0.0046,0.0015,0.0,0.0007,-7.6
2.268,-0.0046,0.0007,0.0052,0.003,-7.2
2.269,-0.0113,0.0007,0.0105,0.0007,-6.9
2.27,-0.0143,-0.0015,0.0112,-0.0023,-6.6
2.271,-0.012,-0.0075,0.0082,-0.0091,-6.3
2.272,-0.0098,-0.0075,0.0075,-0.012,-6.0
2.273,-0.0038,-0.0053,0.0082,-0.0105,-5.7
2.274,-0.0015,-0.0075,0.0037,-0.0091,-5.4
2.275,-0.0038,-0.0053,-0.0046,-0.003,-5.0
2.276,-0.0023,-0.0008,-0.0046,-0.0015,-4.7
2.277,-0.003,0.0022,0.0007,0.0,-4.4
2.278,-0.0008,0.0015,0.006,0.0015,-4.1
2.279,-0.0008,0.0015,0.0075,0.0022,-3.8
2.28,-0.0038,0.003,0.003,-0.0015,-3.5
2.281,-0.0046,0.0022,-0.0046,0.0007,-3.2
2.282,-0.0015,0.0015,-0.0038,0.003,-3.0
2.283,0.0037,0.0,-0.0008,0.0022,-2.8
2.284,0.0052,-0.0015,-0.0015,0.0015,-2.6
2.285,0.0015,-0.0008,-0.0023,0.0015,-2.3
2.286,0.0015,-0.0008,-0.003,0.0015,-2.1
2.287,0.006,-0.0015,-0.0038,0.0015,-1.9
2.288,0.0082,0.0,-0.0015,0.0007,-1.7
2.289,0.0075,0.0007,0.0015,-0.0015,-1.4
2.29,0.0052,0.0015,0.0015,-0.0015,-1.2
2.291,0.0052,0.0022,0.0045,0.0015,-1.0
2.292,0.0075,0.0015,0.003,-0.0008,-0.8
2.293,0.012,0.003,0.0007,-0.0015,-0.6
2.294,0.0127,0.0022,-0.0015,-0.0053,-0.4
2.295,0.006,0.0,-0.0015,-0.0068,-0.1
2.296,0.0015,-0.0015,0.0045,-0.0046,0.1
2.297,0.0007,-0.0046,0.009,-0.003,0.3
2.298,0.0015,-0.0053,0.0052,-0.0015,0.5
2.299,0.0,-0.0046,-0.0068,0.0007,0.8
2.3,-0.0046,-0.0046,-0.0105,0.003,1.0
2.301,-0.0068,-0.0046,-0.0098,0.0045,1.1
2.302,-0.0091,-0.0008,-0.0038,0.0045,1.3
2.303,-0.0105,0.0007,0.0007,0.0045,1.4
2.304,-0.0105,0.0015,-0.0015,0.0037,1.6
2.305,-0.0135,0.003,-0.003,0.0015,1.7
2.306,-0.0083,0.0045,0.0,-0.0008,1.8
2.307,0.0082,0.009,0.0127,-0.0008,2.0
2.308,0.0195,0.0067,0.0105,-0.003,2.2
2.309,0.0127,0.0037,0.0075,-0.0038,2.3
2.31,0.0052,0.003,0.0157,-0.003,2.4
2.311,0.003,0.0007,0.0172,-0.0046,2.6
2.312,-0.003,0.0,0.0202,-0.0046,2.7
2.313,-0.0008,-0.0023,0.0187,-0.003,2.9
2.314,-0.0008,-0.0008,0.0172,-0.0023,3.0
2.315,0.0007,0.0,0.0097,-0.0008,3.1
2.316,0.0,-0.0038,-0.0008,0.0007,3.3
2.317,-0.0068,-0.0023,-0.0008,0.0,3.4
2.318,-0.006,-0.0015,-0.0068,0.0,3.6
2.319,-0.0068,0.0,-0.0158,0.0022,3.7
2.32,-0.0068,0.0015,-0.0165,0.0015,3.9
2.321,-0.0068,0.0,-0.012,0.0015,4.0
2.322,-0.0038,0.0015,-0.0068,0.003,4.0
2.323,-0.0015,0.0015,-0.003,0.0015,4.1
2.324,0.0022,0.0,0.0015,0.003,4.1
2.325,0.0082,-0.003,0.012,0.0015,4.2
2.326,0.0067,-0.003,0.0127,0.0,4.3
2.327,0.0007,-0.0015,0.0082,-0.0008,4.4
2.328,0.0,-0.0008,0.0105,-0.0008,4.4
2.329,-0.0008,0.0007,0.009,0.0,4.5
2.33,-0.003,-0.0015,0.0082,-0.0023,4.6
2.331,-0.0023,-0.0015,0.0052,-0.0015,4.6
2.332,-0.0008,-0.0015,0.0007,-0.0015,4.7
2.333,0.0,-0.0008,-0.003,-0.0015,4.8
2.334,-0.0008,0.0015,-0.0105,0.0,4.9
2.335,-0.0008,0.0037,-0.0158,0.0007,4.9
2.336,-0.0023,0.003,-0.0203,-0.0008,5.0
2.337,-0.0068,-0.0015,-0.0188,-0.003,5.0
2.338,-0.006,-0.0046,-0.0158,-0.0046,5.1
2.339,-0.0046,-0.0091,-0.0113,-0.0053,5.2
2.34,-0.0038,-0.0068,-0.0053,-0.0046,5.3
2.341,-0.003,-0.0053,-0.0038,-0.003,5.3
2.342,0.0,-0.006,-0.0015,-0.003,5.3
2.343,0.0037,-0.0023,-0.0008,-0.0008,5.3
2.344,0.0015,-0.003,0.0022,0.0022,5.3
2.345,0.0,-0.0015,0.0015,0.003,5.3
2.346,-0.0038,-0.0008,0.0015,0.0015,5.3
2.347,-0.0068,-0.0023,0.003,-0.0015,5.3
2.348,-0.0053,-0.0015,0.0015,-0.003,5.3
2.349,-0.0053,-0.0023,0.003,-0.0053,5.3
2.35,-0.0038,-0.0023,0.0037,-0.0113,5.3
2.351,0.0007,-0.0015,0.006,-0.0135,5.3
2.352,0.0075,-0.0008,0.0067,-0.012,5.3
2.353,0.0112,-0.0008,0.0067,-0.0091,5.3
2.354,0.0082,-0.0008,0.0052,-0.0075,5.3
2.355,0.0,-0.003,0.0037,-0.006,5.3
2.356,-0.0098,-0.0053,0.0045,-0.003,5.3
2.357,-0.0181,0.0,0.0052,0.0,5.3
2.358,-0.0165,0.0067,0.0082,0.0045,5.3
2.359,-0.0143,0.0052,0.0075,0.0067,5.3
2.36,-0.0105,0.0052,0.0045,0.0075,5.3
2.361,-0.003,0.0015,0.0022,0.0052,5.3
2.362,0.0022,-0.0008,0.0,0.0007,5.3
2.363,0.0082,-0.0008,-0.0046,0.0007,5.3
2.364,0.0157,-0.0015,-0.0023,-0.0046,5.2
2.365,0.0232,-0.0023,0.003,-0.0158,5.1
2.366,0.0307,0.0082,0.0082,-0.0203,5.1
2.367,0.033,0.018,0.0135,-0.0143,5.0
2.368,0.0277,0.009,0.015,-0.0015,5.0
2.369,0.0195,0.0007,0.0105,0.012,4.9
2.37,0.0067,-0.0068,0.0105,0.0127,4.9
2.371,-0.003,-0.0158,0.009,0.0022,4.8
2.372,-0.0038,-0.0278,0.0045,-0.0083,4.8
2.373,-0.0046,-0.0323,0.003,-0.0068,4.7
2.374,-0.0046,-0.0203,0.0007,0.003,4.7
2.375,-0.0068,-0.0181,0.0007,0.0015,4.6
2.376,-0.0083,-0.0135,0.0007,0.0015,4.6
2.377,-0.012,0.0,0.0015,0.0082,4.5
2.378,-0.0165,0.0157,-0.003,0.0142,4.5
2.379,-0.012,0.0307,-0.0046,0.0195,4.4
2.38,-0.0091,0.027,-0.0046,0.0135,4.3
2.381,-0.0053,0.0157,-0.0158,0.0015,4.3
2.382,-0.0053,0.0082,-0.0218,-0.0091,4.2
2.383,-0.0105,0.006,-0.0218,-0.015,4.1
2.384,-0.0091,0.0067,-0.0135,-0.0098,4.0
2.385,0.0045,-0.0023,-0.003,-0.0158,3.9
2.386,0.021,-0.0046,0.0015,-0.0203,3.8
2.387,0.024,-0.0083,0.0097,-0.0128,3.7
2.388,0.0232,-0.012,0.012,-0.003,3.6
2.389,0.0225,-0.003,0.0037,0.0067,3.6
2.39,0.0127,-0.0008,-0.0038,0.0082,3.5
2.391,-0.006,-0.0008,-0.0113,0.0127,3.4
2.392,-0.0173,0.0007,-0.0203,0.0232,3.3
2.393,-0.0143,0.0015,-0.0158,0.0127,3.2
2.394,-0.0113,0.0,-0.0091,-0.0091,3.1
2.395,-0.0091,0.003,-0.0053,-0.0195,3.0
2.396,-0.0091,0.0075,0.0037,-0.0256,2.9
2.397,-0.0091,0.0067,0.009,-0.0278,2.8
2.398,-0.0083,-0.0046,0.0127,-0.027,2.7
2.399,-0.0143,-0.0248,0.0105,-0.0256,2.6
2.4,-0.0278,-0.0293,0.009,-0.0165,2.5
2.401,-0.0346,-0.0248,0.0105,-0.0165,2.5
2.402,-0.0195,-0.0233,0.006,-0.0165,2.5
2.403,-0.006,-0.0158,0.0037,-0.0105,2.4
2.404,0.0015,-0.003,0.0007,-0.0015,2.4
2.405,0.0105,0.0037,0.003,0.0022,2.4
2.406,0.0127,0.0067,0.0082,-0.003,2.3
2.407,0.0142,0.009,0.0037,-0.0008,2.3
2.408,0.012,0.0142,0.003,0.012,2.2
2.409,0.018,0.0202,0.0015,0.0262,2.2
2.41,0.0255,0.0232,0.0045,0.0382,2.2
2.411,0.0255,0.0262,0.0127,0.0457,2.2
2.412,0.0127,0.027,0.0142,0.0472,2.1
2.413,-0.006,0.021,0.015,0.045,2.1
2.414,-0.0165,0.0112,0.0112,0.0442,2.0
2.415,-0.021,0.0015,0.009,0.0457,2.0
2.416,-0.0165,-0.0053,0.0052,0.039,1.9
2.417,-0.0105,-0.0105,-0.0023,0.0322,1.9
2.418,-0.0046,-0.0158,-0.0105,0.0037,1.9
2.419,0.0045,-0.0195,-0.0098,-0.0443,1.8
2.42,0.0105,-0.0113,-0.0091,-0.057,1.8
2.421,0.009,0.0082,-0.0233,-0.0548,1.8
2.422,0.0082,0.0127,-0.0368,-0.0533,1.7
2.423,0.0,0.0007,-0.0398,-0.0443,1.7
2.424,-0.0083,-0.0158,-0.027,-0.0361,1.6
2.425,-0.0128,-0.0225,-0.0158,-0.0233,1.6
2.426,-0.0098,-0.0278,-0.0105,-0.0165,1.5
2.427,-0.0015,-0.0315,-0.0008,-0.0143,1.5
2.428,-0.003,-0.0165,0.0142,-0.015,1.4
2.429,-0.0083,-0.0046,0.0322,-0.0143,1.4
2.43,-0.0015,-0.0023,0.0465,0.0015,1.3
2.431,0.0135,0.0015,0.054,0.0165,1.3
2.432,0.0232,0.006,0.0427,0.0195,1.3
2.433,0.0255,0.0082,0.0202,0.012,1.2
2.434,0.0225,0.0082,0.0067,0.0082,1.2
2.435,0.0172,0.012,0.0007,0.0067,1.1
2.436,0.0157,0.0127,-0.003,0.0015,1.1
2.437,0.0067,0.0142,0.0007,0.0007,1.0
2.438,-0.0015,0.0127,0.0067,0.006,1.0
2.439,-0.0038,0.0067,-0.0053,0.009,0.9
2.44,-0.012,0.0022,-0.0315,0.0067,0.9
2.441,-0.0188,0.0022,-0.0518,0.0105,0.7
2.442,-0.0105,0.003,-0.057,0.0165,0.5
2.443,-0.0023,0.0022,-0.045,0.015,0.4
2.444,-0.0015,0.0015,-0.0308,-0.0008,0.1
2.445,-0.0023,0.0022,-0.0165,-0.03,0.0
2.446,-0.003,0.0022,-0.0053,-0.0525,-0.2
2.447,-0.0015,-0.0015,0.0045,-0.042,-0.4
2.448,-0.0038,-0.003,0.0195,-0.0083,-0.6
2.449,-0.006,-0.0046,0.0247,0.0202,-0.8
2.45,-0.0113,-0.0053,0.0202,0.0345,-1.0
2.451,-0.0105,-0.0053,0.0255,0.0315,-1.2
2.452,-0.0008,-0.006,0.0307,0.0352,-1.4
2.453,0.003,-0.0038,0.0285,0.0315,-1.5
2.454,0.0015,-0.0053,0.0232,0.0105,-1.7
2.455,0.003,-0.006,0.012,-0.0105,-1.9
2.456,0.0037,-0.006,-0.0008,-0.0323,-2.1
2.457,-0.003,-0.012,-0.0105,-0.0346,-2.3
2.458,-0.006,-0.0068,-0.0046,-0.0278,-2.5
2.459,-0.003,-0.0046,0.0082,-0.0165,-2.7
2.46,-0.0046,-0.0128,0.012,0.003,-2.9
2.461,-0.0038,-0.0091,0.0172,0.0165,-3.1
2.462,-0.0038,0.0015,0.0127,0.0307,-3.2
2.463,-0.003,0.009,0.0067,0.0345,-3.5
2.464,0.0007,0.009,0.0052,0.0157,-3.7
2.465,0.009,0.003,0.0015,-0.0091,-3.9
2.466,0.0172,-0.0015,0.0015,-0.0203,-4.1
2.467,0.0195,0.0007,-0.0015,-0.0181,-4.3
2.468,0.0157,0.0007,0.0052,-0.0098,-4.5
2.469,0.0135,-0.0015,0.0127,-0.003,-4.7
2.47,0.012,-0.0008,0.0082,-0.0053,-5.0
2.471,0.0067,-0.0015,0.009,-0.003,-5.1
2.472,0.0022,0.0015,0.0037,-0.0038,-5.4
2.473,-0.003,0.0052,-0.0008,-0.0053,-5.5
2.474,-0.0068,0.006,0.0007,0.0007,-5.8
2.475,-0.0098,0.0052,0.009,0.003,-6.0
2.476,-0.0158,0.0045,0.0142,-0.0008,-6.2
2.477,-0.0158,0.0007,0.0075,-0.0083,-6.4
2.478,-0.0181,-0.003,-0.0008,-0.0113,-6.6
2.479,-0.0181,-0.0008,-0.0053,-0.0105,-6.8
2.48,-0.0098,0.0015,0.0045,-0.0091,-7.1
2.481,-0.003,0.0052,0.0217,-0.0038,-7.1
2.482,0.0052,0.0097,0.0285,-0.0015,-7.1
2.483,0.0097,0.0067,0.0202,-0.0008,-7.1
2.484,0.009,0.003,0.0112,0.0045,-7.1
2.485,0.009,0.0037,0.0082,0.0037,-7.2
2.486,0.012,0.0007,0.0045,0.003,-7.2
2.487,0.018,-0.0038,0.0,0.0015,-7.2
2.488,0.024,-0.0098,-0.0068,0.0007,-7.2
2.489,0.0232,-0.0083,-0.0046,0.0007,-7.2
2.49,0.0142,-0.003,0.0082,-0.0015,-7.3
2.491,0.0112,-0.0023,0.0142,-0.0008,-7.3
2.492,0.0127,0.0,0.003,0.003,-7.3
2.493,0.0097,0.0015,-0.0083,-0.003,-7.3
2.494,0.009,0.0022,-0.0068,-0.0023,-7.4
2.495,0.0045,0.003,-0.0046,0.003,-7.4
2.496,0.0045,0.0037,0.0015,0.0022,-7.4
2.497,0.0,-0.003,0.003,0.003,-7.4
2.498,-0.0075,-0.0053,0.0082,0.0052,-7.5
2.499,-0.0015,-0.0046,0.0067,0.0067,-7.5
2.5,0.0,-0.0008,0.0037,0.0022,-7.6
2.501,-0.003,0.0015,0.0052,-0.0053,-7.5
2.502,-0.0083,0.0,0.0015,-0.003,-7.4
2.503,-0.0098,0.0007,-0.0015,-0.006,-7.3
2.504,0.0015,-0.0038,-0.0091,-0.0173,-7.2
2.505,0.0007,-0.0083,-0.012,-0.0143,-7.2
2.506,-0.0098,-0.0068,-0.0105,-0.0091,-7.1
2.507,-0.0188,-0.0068,-0.0098,-0.0053,-7.0
2.508,-0.0278,-0.006,-0.0091,-0.0015,-6.9
2.509,-0.0346,-0.006,-0.0068,0.0,-6.8
2.51,-0.0323,-0.0046,-0.0068,0.0022,-6.7
2.511,-0.0233,0.0022,-0.0105,0.003,-6.7
2.512,-0.015,0.0082,-0.012,0.0045,-6.6
2.513,-0.0143,0.0067,-0.012,0.0022,-6.5
2.514,-0.0173,0.0045,-0.0105,0.0015,-6.4
2.515,-0.0158,0.0022,-0.0105,0.003,-6.3
2.516,-0.0068,-0.0046,-0.012,0.0007,-6.2
2.517,0.0,-0.0128,-0.0143,0.0015,-6.2
2.518,0.0067,-0.0158,-0.0128,0.0022,-6.1
2.519,0.009,-0.0053,-0.0083,0.0015,-6.0
2.52,0.0075,0.0,-0.0068,0.0007,-5.9
2.521,0.0045,0.0,-0.0105,0.0007,-5.9
2.522,0.003,0.0045,-0.015,-0.0015,-5.8
2.523,-0.0008,0.0022,-0.0143,-0.0023,-5.8
2.524,0.0015,0.0037,-0.0068,-0.003,-5.7
2.525,0.0127,0.0,0.0022,-0.0015,-5.7
2.526,0.0247,-0.0015,0.006,-0.0015,-5.6
2.527,0.0217,0.0007,0.006,-0.003,-5.6
2.528,0.009,-0.0015,0.0082,-0.0015,-5.5
2.529,0.0052,-0.0023,0.009,-0.003,-5.5
2.53,0.003,-0.0023,0.0112,-0.003,-5.4
2.531,0.003,-0.003,0.012,-0.003,-5.4
2.532,0.0022,-0.003,0.0097,-0.0023,-5.3
2.533,0.0007,-0.0023,0.0082,-0.0015,-5.3
2.534,0.0037,-0.0015,0.0105,-0.003,-5.2
2.535,0.0045,-0.0015,0.0127,-0.0046,-5.2
2.536,0.0052,-0.0008,0.0142,-0.0038,-5.1
2.537,0.0037,-0.0008,0.015,-0.003,-5.1
2.538,0.003,0.0007,0.0142,-0.0015,-5.0
2.539,0.003,0.0015,0.0127,0.0015,-5.0
2.54,0.0015,0.0015,0.0082,0.0007,-5.0
2.541,0.0015,0.0,0.0082,0.0015,-4.9
2.542,-0.0008,0.0015,0.0082,-0.0008,-4.9
2.543,-0.0008,0.0015,0.0112,-0.0008,-4.9
2.544,-0.003,0.0007,0.009,-0.0015,-4.8
2.545,-0.0083,-0.0008,0.0,-0.0038,-4.8
2.546,-0.0091,0.0,-0.0053,-0.0015,-4.7
2.547,-0.0046,0.0,-0.0083,-0.0008,-4.7
2.548,-0.0015,0.0007,-0.0091,0.0,-4.7
2.549,0.0022,0.0007,-0.012,0.0015,-4.6
2.55,0.0045,0.0015,-0.0128,0.003,-4.6
2.551,0.0015,0.0007,-0.0105,0.0007,-4.5
2.552,0.0,0.0007,-0.0046,-0.0008,-4.5
2.553,-0.0015,0.0015,-0.0008,-0.0008,-4.5
2.554,0.0007,0.003,0.0015,0.0007,-4.5
2.555,0.0037,0.0015,0.0067,0.0007,-4.4
2.556,0.0015,0.0022,0.0067,0.0007,-4.4
2.557,-0.0046,0.0052,0.009,0.0,-4.3
2.558,-0.0105,0.0045,0.0105,-0.0008,-4.3
2.559,-0.0068,0.0015,0.0097,-0.0008,-4.3
2.56,0.0022,-0.0008,0.0075,-0.0015,-4.2
2.561,0.009,-0.006,0.0052,-0.0023,-4.2
2.562,0.009,-0.0105,0.0015,-0.0008,-4.2
2.563,0.0037,-0.0091,-0.0068,-0.0015,-4.1
2.564,0.0045,-0.0068,-0.0091,0.0015,-4.1
2.565,0.0045,-0.0008,-0.0083,-0.0008,-4.1
2.566,0.0052,0.0015,-0.0015,0.0,-4.1
2.567,0.0112,0.0007,0.009,-0.0008,-4.0
2.568,0.0105,0.0022,0.0142,-0.0038,-4.0
2.569,-0.0008,0.0007,0.012,-0.0046,-4.0
2.57,-0.012,-0.0015,0.009,-0.0046,-3.9
2.571,-0.0158,-0.0015,0.009,-0.0046,-3.9
2.572,-0.012,0.0007,0.0157,-0.0046,-3.9
2.573,-0.0068,0.0022,0.0217,-0.003,-3.9
2.574,-0.0053,0.0037,0.0127,-0.0053,-3.8
2.575,-0.0015,0.0007,0.0052,-0.0046,-3.8
2.576,-0.0015,-0.0008,0.0007,-0.003,-3.8
2.577,0.0,-0.0008,-0.0038,-0.0015,-3.7
2.578,0.006,0.0,-0.0015,0.0007,-3.7
2.579,0.0165,0.0,0.0007,0.0,-3.7
2.58,0.0187,-0.0008,-0.0068,-0.0008,-3.6
2.581,0.0067,-0.0015,-0.012,-0.0023,-3.6
2.582,0.003,-0.0038,-0.0135,-0.003,-3.5
2.583,0.0007,-0.0046,-0.0188,-0.003,-3.4
2.584,-0.003,-0.0015,-0.0188,-0.0015,-3.4
2.585,-0.0015,-0.0008,-0.0158,-0.0008,-3.3
2.586,-0.0015,0.0007,-0.0105,-0.0015,-3.2
2.587,0.0007,0.0007,-0.0068,-0.0015,-3.2
2.588,0.0037,0.0015,-0.003,0.0,-3.1
2.589,-0.0008,0.0007,-0.003,-0.0015,-3.0
2.59,-0.0128,-0.0008,0.0037,-0.003,-2.9
2.591,-0.021,-0.0015,0.009,-0.003,-2.9
2.592,-0.0293,-0.0038,0.0022,-0.0053,-2.8
2.593,-0.0293,-0.0053,-0.0023,-0.0046,-2.7
2.594,-0.0188,-0.0053,-0.0083,-0.003,-2.7
2.595,-0.0091,-0.0053,-0.0075,-0.003,-2.6
2.596,0.0015,-0.0015,-0.0068,-0.0015,-2.5
2.597,0.0067,-0.0015,-0.006,-0.0008,-2.5
2.598,0.0097,-0.003,-0.006,0.0007,-2.4
2.599,0.0067,-0.0015,-0.0053,0.0007,-2.3
2.6,0.0082,-0.0008,-0.0008,0.0022,-2.3
2.601,0.0105,0.0015,-0.0008,0.0037,-2.2
2.602,0.0045,0.0015,0.0037,0.0015,-2.1
2.603,-0.003,0.0,0.003,-0.0008,-2.0
2.604,-0.0091,-0.0015,0.003,-0.003,-1.9
2.605,-0.0091,-0.0008,0.0045,-0.003,-1.8
2.606,-0.0068,-0.0008,0.0015,-0.0038,-1.7
2.607,-0.003,-0.0015,0.0037,-0.0046,-1.6
2.608,-0.0008,-0.0008,0.0037,-0.003,-1.5
2.609,0.0,-0.0008,0.0037,-0.003,-1.4
2.61,-0.0008,-0.0015,0.0045,-0.003,-1.4
2.611,0.0007,-0.0008,0.0045,-0.0008,-1.3
2.612,0.0015,0.0007,0.003,0.0007,-1.2
2.613,0.0007,-0.0008,0.0022,-0.0008,-1.1
2.614,0.0015,-0.0008,0.003,-0.0015,-1.0
2.615,0.0022,-0.003,0.0052,-0.003,-0.9
2.616,0.0045,-0.0038,0.0067,-0.003,-0.8
2.617,0.0067,-0.0008,0.0052,-0.0008,-0.7
2.618,0.0097,0.0007,0.0045,-0.0015,-0.6
2.619,0.0105,-0.0008,0.0045,-0.0008,-0.5
2.62,0.0112,0.0,0.0082,0.0,-0.5
2.621,0.015,0.0015,0.0082,0.0007,-0.4
2.622,0.0105,0.0022,0.012,0.0,-0.4
2.623,0.006,-0.0015,0.012,-0.0008,-0.4
2.624,0.0052,-0.006,0.0127,0.0,-0.3
2.625,0.0052,-0.003,0.0165,0.0007,-0.3
2.626,0.0045,-0.0023,0.0127,0.0,-0.3
2.627,-0.0046,-0.0038,0.0142,0.0007,-0.2
2.628,-0.0068,0.0007,0.0112,0.0007,-0.2
2.629,-0.006,0.0007,0.0082,-0.0015,-0.2
2.63,-0.0046,-0.0008,0.0045,-0.003,-0.1
2.631,0.0007,-0.0015,-0.003,-0.0046,-0.1
2.632,0.0007,-0.0015,-0.0053,-0.0053,-0.1
2.633,0.0022,0.0007,-0.0053,-0.0068,0.0
2.634,0.0022,-0.0008,-0.0038,-0.0046,0.0
2.635,-0.0008,-0.003,-0.003,0.0015,0.0
2.636,-0.0046,-0.0008,-0.003,0.0022,0.0
2.637,-0.0075,0.0,-0.003,0.0022,0.1
2.638,-0.0075,0.0007,-0.006,0.0037,0.1
2.639,-0.0053,0.0,-0.0053,0.0015,0.1
2.64,-0.0046,0.0,-0.0091,0.003,0.2
2.641,-0.0068,0.0015,-0.0195,0.003,0.2
2.642,-0.0075,0.0007,-0.0195,0.0007,0.2
2.643,-0.0068,0.0,-0.0181,-0.0008,0.3
2.644,-0.006,0.0015,-0.0158,-0.0023,0.3
2.645,-0.0046,0.0,-0.0068,-0.0023,0.3
2.646,-0.003,-0.0008,-0.0015,-0.003,0.3
2.647,-0.0008,0.0,0.0037,-0.0023,0.4
2.648,-0.0015,-0.0008,0.0052,-0.0008,0.4
2.649,0.0007,0.0,0.003,0.0022,0.4
2.65,0.0,0.0007,0.0,0.0045,0.4
2.651,-0.0023,-0.0008,0.0015,0.0022,0.4
2.652,0.0,-0.0015,0.0052,0.003,0.5
2.653,0.0007,-0.0008,0.0105,0.003,0.5
2.654,0.003,0.0,0.0097,0.0015,0.5
2.655,0.0052,-0.0008,0.0067,-0.0015,0.5
2.656,0.0045,0.0015,0.009,-0.0046,0.6
2.657,0.0052,0.0,0.0112,-0.0046,0.6
2.658,0.0082,0.0007,0.0135,-0.0053,0.6
2.659,0.0082,0.0015,0.0142,-0.006,0.6
2.66,0.0075,-0.0008,0.0142,-0.0053,0.7
2.661,0.006,0.0,0.0052,-0.0053,0.7
2.662,0.0015,0.0,0.0,-0.0046,0.7
2.663,-0.0015,-0.0008,-0.003,-0.0008,0.8
2.664,-0.0023,0.0,-0.0046,0.0,0.8
2.665,0.0,0.0015,-0.0015,0.0007,0.8
2.666,0.0,0.0007,-0.0038,0.0007,0.8
2.667,-0.0015,0.0007,-0.0015,0.0015,0.8
2.668,0.0022,0.0015,0.003,0.0,0.9
2.669,0.003,0.0,0.0015,-0.0008,0.9
2.67,0.0007,0.0,-0.0008,-0.0015,0.9
2.671,-0.0015,-0.0008,0.0,-0.0023,0.9
2.672,-0.003,0.0,0.0,-0.0008,0.9
2.673,-0.0023,0.0007,-0.0008,-0.0015,1.0
2.674,0.0,0.0007,0.0015,-0.0008,1.0
2.675,0.0037,0.0015,0.0022,0.0015,1.0
2.676,0.0015,-0.0015,0.006,0.0,1.0
2.677,0.0,-0.0015,0.0127,-0.0008,1.0
2.678,0.0015,-0.0015,0.0082,-0.0008,1.1
2.679,0.003,-0.0015,0.0007,-0.0015,1.1
2.68,0.0037,-0.0015,-0.003,-0.0008,1.1
2.681,0.0037,-0.0023,-0.0083,-0.0008,1.2
2.682,0.0045,-0.0015,-0.0068,-0.0015,1.2
2.683,0.0015,0.0,-0.0053,-0.0015,1.2
2.684,0.0015,-0.0008,-0.0046,-0.0023,1.3
2.685,0.0022,-0.0023,0.0,-0.0015,1.3
2.686,0.0007,-0.0023,0.0015,-0.0023,1.3
2.687,-0.0008,0.0,0.0015,-0.0008,1.4
2.688,-0.0023,0.0,0.0052,-0.0008,1.4
2.689,-0.0015,-0.0023,0.0097,-0.0015,1.4
2.69,-0.0053,0.0,0.0052,0.0,1.5
2.691,-0.006,0.0007,0.003,0.0007,1.5
2.692,-0.0015,0.0007,0.0067,0.0,1.6
2.693,0.0007,0.0007,0.0075,-0.0023,1.6
2.694,0.0007,-0.0015,0.0082,-0.003,1.6
2.695,0.0007,-0.0023,0.0082,-0.003,1.7
2.696,0.0,-0.0023,0.009,-0.003,1.7
2.697,0.0022,-0.003,0.0075,-0.0023,1.8
2.698,0.0045,-0.003,0.006,-0.0023,1.8
2.699,0.0045,-0.0015,0.006,-0.0023,1.8
2.7,0.0045,-0.0008,0.006,-0.0015,1.8
2.701,0.0052,0.0007,0.0052,-0.003,1.9
2.702,0.003,0.0015,0.0052,-0.003,1.9
2.703,0.003,0.0007,0.0075,-0.0038,2.0
2.704,0.0045,0.0007,0.0052,-0.003,2.1
2.705,0.003,0.0007,0.0052,-0.0015,2.1
2.706,0.0,0.0007,0.0045,-0.0023,2.2
2.707,-0.003,0.0007,0.0022,-0.0015,2.2
2.708,-0.0068,-0.0008,0.003,-0.0023,2.3
2.709,-0.0068,0.0007,0.0015,-0.0008,2.3
2.71,-0.0046,0.0015,0.0015,-0.0008,2.4
2.711,-0.0023,0.0007,-0.0008,0.0007,2.5
2.712,-0.0008,0.0015,-0.0008,0.0007,2.5
2.713,-0.0008,0.003,0.0015,-0.003,2.6
2.714,-0.0008,0.0015,-0.0008,-0.003,2.6
2.715,-0.0008,0.0022,0.0,-0.003,2.7
2.716,-0.0008,0.0,0.0007,-0.0023,2.7
2.717,0.0007,-0.0023,0.0007,-0.0015,2.8
2.718,-0.0008,-0.0023,0.0007,-0.0015,2.9
2.719,-0.0015,-0.003,-0.0008,-0.003,2.9
2.72,-0.0023,-0.003,0.0007,-0.0068,3.0
2.721,-0.0008,-0.0046,0.0015,-0.0053,3.0
2.722,0.0,-0.003,0.0,-0.0008,3.1
2.723,-0.0023,-0.0015,0.0007,0.003,3.1
2.724,-0.0008,-0.0038,0.0015,0.0015,3.2
2.725,0.0,-0.003,0.0022,-0.006,3.2
2.726,0.0,-0.0015,-0.0008,-0.0143,3.3
2.727,0.0015,-0.0015,-0.0015,-0.0158,3.4
2.728,0.0007,0.0015,-0.0038,-0.0098,3.4
2.729,0.0,0.0007,-0.003,0.0,3.5
2.73,-0.0015,-0.0015,-0.003,0.0105,3.6
2.731,-0.0008,0.0007,-0.0038,0.0187,3.6
2.732,-0.0008,0.003,-0.003,0.0315,3.6
2.733,-0.003,0.003,-0.003,0.0427,3.7
2.734,-0.0038,0.0015,-0.0008,0.0315,3.7
2.735,-0.0023,-0.0015,-0.0023,0.012,3.8
2.736,-0.003,-0.006,-0.0015,0.0,3.9
2.737,-0.003,-0.0053,0.0,-0.0068,3.9
2.738,0.0,-0.003,0.0,-0.0091,4.0
2.739,0.0,-0.0038,0.0,0.0105,4.0
2.74,-0.0015,-0.003,0.0007,0.0202,4.1
2.741,-0.0023,-0.003,-0.0008,-0.0105,4.1
2.742,-0.0023,-0.006,-0.003,-0.0361,4.2
2.743,-0.003,-0.0068,-0.0023,-0.0473,4.2
2.744,-0.003,-0.0046,-0.0015,-0.0383,4.3
2.745,0.0,-0.0008,-0.0023,-0.024,4.3
2.746,-0.0008,0.0007,-0.003,-0.0195,4.4
2.747,0.0015,0.0007,-0.0015,-0.0135,4.4
2.748,0.0007,0.0015,-0.0015,-0.0165,4.5
2.749,-0.0008,-0.0008,-0.0015,-0.0128,4.5
2.75,-0.0008,-0.0015,-0.0015,-0.012,4.5
2.751,-0.003,-0.0023,-0.003,-0.0143,4.5
2.752,-0.0023,-0.0023,-0.0046,-0.0105,4.6
2.753,-0.0008,0.0007,-0.003,-0.0015,4.6
2.754,-0.0008,0.0052,-0.0023,0.0105,4.7
2.755,-0.0015,0.0052,0.0,0.0202,4.7
2.756,-0.0008,0.0045,0.003,0.0337,4.8
2.757,0.0007,0.0015,0.0022,0.036,4.8
2.758,-0.0015,0.0,0.0015,0.0262,4.9
2.759,-0.0015,-0.0008,0.0007,0.0202,4.9
2.76,-0.0015,-0.003,0.0007,0.0202,4.9
2.761,-0.0015,-0.0008,0.0007,0.0217,5.0
2.762,0.0,0.0015,0.0015,0.012,5.0
2.763,0.0007,0.0022,0.0015,-0.0015,5.1
2.764,0.0007,0.003,0.0022,-0.0128,5.1
2.765,0.0015,0.003,0.0015,-0.0203,5.2
2.766,0.0022,0.0015,0.0015,-0.0203,5.2
2.767,0.0037,0.0015,-0.0008,-0.0181,5.3
2.768,0.003,0.0007,-0.0008,-0.0165,5.3
2.769,0.0015,0.0007,-0.0008,-0.0181,5.3
2.77,0.0022,0.0007,-0.0008,-0.0135,5.4
2.771,0.0015,0.0,0.0007,-0.006,5.4
2.772,0.0007,-0.0015,0.0,0.0007,5.4
2.773,-0.0008,-0.0023,-0.0008,0.0037,5.5
2.774,-0.0023,-0.0053,-0.0046,0.0045,5.5
2.775,-0.003,-0.0068,-0.0038,0.009,5.6
2.776,-0.003,-0.003,-0.0038,0.0105,5.6
2.777,-0.003,-0.0038,-0.0038,0.0082,5.7
2.778,-0.0038,-0.006,-0.0038,0.0007,5.7
2.779,-0.0023,-0.006,-0.003,-0.0053,5.8
2.78,-0.0008,-0.003,0.0,-0.0053,5.8
2.781,-0.0008,-0.0008,0.0015,-0.0128,5.8
2.782,-0.0008,-0.0023,0.0007,-0.0248,5.8
2.783,-0.0008,-0.0015,0.0045,-0.0315,5.9
2.784,-0.0008,-0.0008,0.0082,-0.0278,5.9
2.785,-0.0008,-0.0008,0.0045,-0.0083,6.0
2.786,0.0007,0.0,0.0045,0.0157,6.0
2.787,0.0007,-0.0023,0.003,0.024,6.0
2.788,-0.0008,-0.0053,0.0015,0.0165,6.1
2.789,-0.0008,-0.0053,0.0015,0.0082,6.1
2.79,0.0,-0.0008,0.0022,0.0075,6.1
2.791,-0.0015,0.0007,0.003,0.0045,6.2
2.792,-0.0008,0.0,0.0045,0.003,6.2
2.793,0.0015,0.0022,0.0045,0.003,6.2
2.794,0.0045,0.003,0.0015,0.0067,6.3
2.795,0.0037,0.0037,0.003,0.0105,6.3
2.796,0.003,0.0022,0.0022,0.0067,6.3
2.797,0.003,0.0015,0.0007,0.0075,6.3
2.798,0.0015,-0.0015,0.0007,0.0127,6.4
2.799,-0.0015,0.0,-0.0023,0.0157,6.4
2.8,-0.0083,0.003,-0.0023,0.0045,6.4
2.801,-0.0068,-0.0008,0.0007,-0.0023,6.5
2.802,-0.0015,-0.0023,0.0037,0.0007,6.5
2.803,0.003,-0.0068,0.0037,0.0052,6.6
2.804,0.0052,-0.006,0.0045,0.0007,6.6
2.805,0.0007,-0.0053,0.0075,-0.0113,6.6
2.806,-0.0046,-0.003,0.012,-0.012,6.7
2.807,-0.0038,-0.0008,0.0187,-0.012,6.7
2.808,0.0007,0.0,0.0187,-0.0143,6.7
2.809,0.006,0.0015,0.009,-0.024,6.8
2.81,0.009,-0.0015,-0.0015,-0.033,6.8
2.811,0.0135,0.0015,-0.0068,-0.0218,6.8
2.812,0.0195,0.0067,-0.0068,-0.0098,6.9
2.813,0.015,0.0045,-0.0015,-0.0053,6.9
2.814,0.0045,0.0015,0.0015,-0.003,7.0
2.815,-0.0008,-0.0015,0.0045,-0.003,7.0
2.816,-0.0068,-0.0083,0.0007,-0.0038,7.1
2.817,-0.0038,-0.0053,-0.0046,-0.0008,7.1
2.818,-0.0046,-0.0015,-0.0053,-0.0008,7.1
2.819,-0.0113,-0.0008,-0.003,-0.0008,7.2
2.82,-0.0068,0.0007,0.0007,0.0015,7.2
2.821,-0.0053,-0.0008,-0.0008,0.003,7.2
2.822,-0.0023,0.0015,-0.0023,0.0067,7.2
2.823,0.0,0.0015,-0.0008,0.0112,7.3
2.824,0.0007,0.003,0.0007,0.0105,7.3
2.825,0.0,0.0015,0.003,0.0067,7.4
2.826,-0.003,0.0,0.0037,0.0067,7.4
2.827,-0.0015,0.0015,0.0022,0.0067,7.4
2.828,-0.0015,0.0022,0.0007,0.0015,7.5
2.829,-0.0008,0.0007,0.0,-0.0038,7.5
2.83,0.0,-0.0023,0.0007,-0.0053,7.6
2.831,0.0015,-0.0015,-0.0015,-0.0083,7.6
2.832,0.0,-0.0008,-0.0015,-0.012,7.6
2.833,-0.0015,0.0,-0.0015,-0.0143,7.6
2.834,-0.0015,0.0007,0.0007,-0.0091,7.6
2.835,-0.0008,0.003,0.003,-0.0023,7.7
2.836,0.0015,0.0015,0.0015,0.0007,7.7
2.837,0.0007,0.0007,0.0022,0.012,7.8
2.838,0.0015,0.0015,0.0007,0.0187,7.8
2.839,0.0007,0.0015,0.0022,0.015,7.8
2.84,0.0007,0.0022,0.003,0.0105,7.9
2.841,0.0,0.0022,0.0015,0.0067,7.9
2.842,0.0007,-0.0023,0.0015,-0.0015,7.9
2.843,0.0037,-0.0068,0.0007,-0.0068,7.9
2.844,0.0007,-0.003,0.0022,-0.0083,8.0
2.845,0.0007,-0.0008,0.0022,-0.0105,8.0
2.846,0.0,-0.0023,0.0015,-0.0143,8.0
2.847,-0.0023,-0.0046,0.0045,-0.0165,8.0
2.848,-0.0015,-0.0068,0.0052,-0.0128,8.1
2.849,-0.0008,-0.003,0.0037,-0.0046,8.1
2.85,-0.0008,-0.0015,0.003,-0.0008,8.1
2.851,-0.0008,0.0007,0.0045,0.0,8.1
2.852,-0.0008,0.0015,0.0045,0.0045,8.1
2.853,-0.0008,-0.0008,0.003,0.0082,8.1
2.854,-0.0015,-0.0008,0.0007,0.0052,8.1
2.855,-0.0008,0.0,0.003,0.0075,8.2
2.856,0.0,0.0007,0.0037,0.0105,8.2
2.857,0.0007,0.0007,0.0045,0.0,8.2
2.858,0.0007,-0.0008,0.0052,-0.0046,8.2
2.859,0.0007,0.0,0.003,-0.0068,8.3
2.86,0.0007,-0.0015,0.0,-0.0083,8.3
2.861,-0.0015,-0.0015,-0.0038,-0.0008,8.3
2.862,-0.0038,-0.0023,-0.0075,-0.0008,8.3
2.863,-0.0053,-0.0023,-0.0128,-0.0015,8.3
2.864,-0.0068,-0.0015,-0.0135,-0.0046,8.3
2.865,-0.0053,-0.003,-0.012,-0.0038,8.2
2.866,-0.0053,-0.003,-0.0091,-0.0015,8.2
2.867,-0.003,-0.003,-0.0023,-0.003,8.2
2.868,0.0,-0.0053,-0.0008,-0.0075,8.2
2.869,0.0015,-0.0053,0.0045,-0.012,8.2
2.87,0.0015,-0.0046,0.0082,-0.0068,8.2
2.871,0.003,-0.0008,0.0105,0.0022,8.2
2.872,0.006,0.0067,0.0135,0.012,8.1
2.873,0.0045,0.0105,0.009,0.0172,8.1
2.874,0.0037,0.0075,0.0067,0.0097,8.1
2.875,0.0015,0.0015,0.0015,0.0037,8.1
2.876,0.0,-0.0015,-0.0015,0.0052,8.1
2.877,0.0,0.0022,0.0007,-0.0015,8.1
2.878,-0.0008,0.0007,0.003,-0.0068,8.1
2.879,0.0007,-0.0015,0.0052,-0.0046,8.1
2.88,0.0015,0.0,0.0045,-0.0046,8.0
2.881,0.0015,-0.0015,0.0052,-0.0083,8.0
2.882,0.0007,-0.0015,0.009,-0.0068,8.0
2.883,0.0,-0.0008,0.009,-0.0015,8.0
2.884,0.0015,-0.0023,0.0082,0.0007,8.0
2.885,0.0015,-0.0046,0.0082,0.003,8.0
2.886,0.0015,-0.0023,0.0082,0.0015,7.9
2.887,0.003,-0.0008,0.0075,-0.0015,7.9
2.888,0.0015,-0.0015,0.0067,-0.0083,7.9
2.889,0.0015,-0.0023,0.003,-0.0083,7.9
2.89,0.0007,-0.0008,-0.0008,-0.006,7.8
2.891,-0.0008,-0.0008,0.0015,-0.0053,7.8
2.892,-0.0023,-0.0015,0.003,-0.006,7.8
2.893,-0.0015,0.0007,0.0045,-0.006,7.8
2.894,-0.0008,0.0,0.0075,-0.003,7.8
2.895,-0.0008,-0.0015,0.003,0.0007,7.7
2.896,0.0,0.0007,0.0,0.003,7.7
2.897,-0.0015,0.0007,-0.0046,-0.0008,7.7
2.898,-0.0023,-0.0008,-0.0046,-0.0046,7.7
2.899,-0.0038,-0.0015,-0.003,-0.003,7.6
2.9,-0.0046,-0.003,-0.0053,-0.0046,7.6
2.901,-0.0053,-0.0046,-0.0038,-0.0053,7.6
2.902,-0.0038,-0.003,-0.0008,-0.0046,7.6
2.903,-0.0015,-0.0038,-0.0038,-0.003,7.6
2.904,-0.003,-0.003,-0.003,-0.0015,7.5
2.905,-0.003,-0.003,-0.0015,0.003,7.5
2.906,-0.0008,0.0045,-0.0008,0.012,7.5
2.907,-0.0015,0.0142,0.0015,0.0165,7.4
2.908,-0.0023,0.012,0.0045,0.009,7.4
2.909,0.0007,0.0015,0.0045,0.0022,7.4
2.91,0.0022,0.0007,0.003,0.0015,7.3
2.911,0.0045,0.0007,0.003,0.0007,7.3
2.912,0.003,-0.0015,0.0015,-0.0008,7.3
2.913,0.0037,-0.0008,0.0007,-0.0008,7.2
2.914,0.0045,-0.0015,0.0022,-0.003,7.2
2.915,0.0007,-0.0015,0.0007,-0.0053,7.2
2.916,-0.0015,-0.0008,-0.0023,-0.0083,7.2
2.917,-0.003,-0.0015,-0.0038,-0.0083,7.1
2.918,-0.003,-0.003,-0.003,-0.0075,7.1
2.919,-0.0008,-0.0046,-0.003,-0.0046,7.1
2.92,0.0,-0.0046,-0.0015,-0.003,7.0
2.921,-0.0008,-0.0046,-0.0008,-0.003,7.0
2.922,-0.0008,-0.0038,-0.0008,-0.0015,7.0
2.923,0.0015,-0.0015,0.0007,-0.0023,6.9
2.924,0.0,-0.0008,-0.0008,-0.0023,6.9
2.925,-0.0015,-0.0015,0.0,-0.003,6.9
2.926,-0.0015,-0.0015,0.0,-0.003,6.8
2.927,-0.0023,-0.0008,-0.0023,-0.0023,6.8
2.928,-0.0023,-0.0008,-0.0015,-0.0015,6.8
2.929,0.0,0.0007,-0.0015,0.0007,6.7
2.93,0.0007,0.0007,-0.0008,-0.0008,6.7
2.931,0.0015,-0.0008,0.0015,-0.0008,6.7
2.932,0.0015,-0.0008,0.0007,-0.0008,6.7
2.933,0.0015,0.0007,0.0007,0.0015,6.7
2.934,0.0015,0.0015,0.0015,0.0015,6.6
2.935,0.0015,0.0007,0.0015,-0.0008,6.6
2.936,0.0007,0.0,0.003,0.0,6.6
2.937,0.0007,0.0007,0.003,-0.0008,6.5
2.938,0.0045,0.0015,0.003,-0.0023,6.5
2.939,0.003,0.0022,0.0022,-0.003,6.5
2.94,0.003,0.0037,0.003,-0.0046,6.4
2.941,0.0037,0.003,0.0022,-0.0038,6.4
2.942,0.0007,-0.0008,0.0007,-0.0008,6.3
2.943,0.0007,-0.0015,0.003,0.003,6.3
2.944,0.0015,-0.0046,0.0015,0.0037,6.3
2.945,0.0007,-0.0053,0.0022,0.003,6.3
2.946,0.0,-0.0053,0.0007,0.0052,6.2
2.947,-0.0008,-0.0083,-0.0008,0.0045,6.2
2.948,0.0,-0.0075,0.0,0.0007,6.1
2.949,0.0007,-0.0075,0.0015,-0.006,6.1
2.95,0.0,-0.0053,0.003,-0.0046,6.0
2.951,-0.0008,-0.003,0.0022,-0.003,6.0
2.952,0.0007,0.0007,0.0045,-0.0053,6.0
2.953,0.0007,0.0045,0.0037,-0.0053,5.9
2.954,0.0,0.009,0.0015,-0.003,5.9
2.955,0.0,0.0075,0.0022,-0.0008,5.8
2.956,-0.0008,0.0007,0.0022,-0.0015,5.8
2.957,-0.0008,-0.0008,0.006,0.0007,5.8
2.958,-0.0008,-0.0023,0.0045,0.003,5.8
2.959,-0.0015,-0.0023,0.0007,0.0037,5.7
2.96,-0.003,-0.0015,0.0015,0.003,5.6
2.961,-0.0015,-0.003,0.0007,-0.0008,5.6
2.962,0.0,-0.003,0.0,-0.0053,5.6
2.963,0.0015,-0.0046,0.0,-0.0046,5.5
2.964,0.0015,-0.0015,-0.0008,-0.0023,5.5
2.965,0.0007,-0.0008,-0.0015,-0.0023,5.4
2.966,0.0015,0.0,-0.0015,-0.0015,5.4
2.967,0.003,-0.0008,0.0007,-0.0015,5.3
2.968,0.003,-0.0015,0.0022,-0.0008,5.3
2.969,0.0007,0.0007,0.003,-0.0023,5.3
2.97,0.0,0.0007,0.0045,-0.0046,5.2
2.971,0.0007,0.0015,0.0037,-0.0038,5.2
2.972,0.0015,0.0037,0.003,-0.0015,5.1
2.973,-0.0008,0.0015,0.0045,0.0007,5.1
2.974,-0.0008,0.0015,0.003,0.0,5.0
2.975,0.0007,-0.0008,0.0052,0.0015,5.0
2.976,0.0,-0.0015,0.003,0.0045,4.9
2.977,0.0007,0.0037,0.0015,0.009,4.9
2.978,0.003,0.0067,0.0037,0.0112,4.9
2.979,0.003,0.0052,0.0022,0.006,4.8
2.98,0.0015,-0.0023,0.0045,-0.0023,4.7
2.981,0.0015,-0.0053,0.003,-0.0083,4.7
2.982,0.0,0.0,0.0015,-0.0158,4.7
2.983,-0.0015,-0.0053,0.003,-0.0248,4.6
2.984,0.0007,-0.0075,0.0052,-0.0256,4.5
2.985,0.0007,-0.012,0.0052,-0.021,4.5
2.986,-0.0008,-0.0143,0.0052,-0.0181,4.5
2.987,-0.0038,-0.0158,0.0015,-0.0023,4.4
2.988,-0.0046,-0.0128,-0.003,0.021,4.3
2.989,-0.0046,-0.006,-0.0015,0.0315,4.3
2.99,-0.0053,-0.003,-0.003,0.0352,4.2
2.991,-0.0023,0.015,-0.0015,0.0277,4.2
2.992,0.0007,0.024,0.0007,0.0105,4.1
2.993,0.0,0.0157,-0.0008,0.0045,4.0
2.994,-0.0015,0.009,-0.0008,0.0015,4.0
2.995,0.0,0.0022,0.0,-0.0053,4.0
2.996,0.0,0.0007,0.0,-0.012,3.9
2.997,0.0007,-0.0015,0.0007,-0.0203,3.9
2.998,0.0015,-0.0015,0.0015,-0.0181,3.8
2.999,0.0007,-0.0008,0.0015,-0.0068,3.7
3.0,0.0007,-0.0008,0.0037,-0.006,3.6
3.001,-0.0008,-0.0083,0.0022,0.0007,3.6
3.002,-0.0015,-0.0218,-0.0008,0.0142,3.6
3.003,-0.0008,-0.0233,-0.0023,0.018,3.5
3.004,0.0,-0.0113,-0.0023,0.0165,3.5
3.005,-0.0008,-0.0091,-0.0046,0.0202,3.4
3.006,-0.0008,-0.012,-0.0038,0.0067,3.3
3.007,-0.003,-0.0158,-0.0023,-0.0143,3.3
3.008,-0.0023,-0.0218,-0.0008,-0.0195,3.2
3.009,-0.0015,0.0052,-0.0008,-0.0128,3.1
3.01,0.0,0.0652,-0.0008,-0.0098,3.1
3.011,0.0007,0.078,0.0022,-0.0293,3.0
3.012,0.0,0.027,0.0045,-0.039,3.0
3.013,0.0007,-0.0046,0.0045,-0.0263,2.9
3.014,-0.0008,-0.0038,0.0037,-0.012,2.8
3.015,0.0,-0.0053,0.003,-0.0038,2.8
3.016,-0.0008,-0.003,0.0037,-0.0015,2.7
3.017,0.0007,-0.0038,0.0052,0.0007,2.6
3.018,0.0015,-0.003,0.0067,0.0015,2.6
3.019,0.0007,-0.0015,0.006,-0.0008,2.5
3.02,-0.0008,-0.0046,0.0067,-0.0038,2.4
3.021,-0.0008,0.0,0.006,-0.0075,2.4
3.022,0.003,-0.0008,0.0052,-0.0098,2.3
3.023,0.0022,0.0007,0.0022,-0.0083,2.3
3.024,0.003,0.0015,0.0015,-0.0015,2.2
3.025,0.0007,-0.0008,0.0015,0.0067,2.2
3.026,-0.0015,-0.0015,0.0015,0.0105,2.1
3.027,0.0,-0.0038,0.0007,0.0127,2.1
3.028,-0.0015,-0.0053,0.0,0.0255,2.0
3.029,0.0,-0.0023,0.0007,0.036,1.9
3.03,0.0007,-0.0008,0.0007,0.0367,1.9
3.031,-0.0015,-0.0053,0.0007,0.024,1.8
3.032,0.0007,-0.0091,0.0015,0.0037,1.8
3.033,0.0,-0.0135,0.0007,-0.0053,1.7
3.034,-0.0015,-0.0113,-0.0008,-0.0105,1.7
3.035,0.0007,-0.0075,0.0007,-0.0098,1.6
3.036,-0.0008,-0.0083,-0.0008,-0.0105,1.5
3.037,0.0,-0.0083,-0.0008,-0.0091,1.5
3.038,0.0015,-0.0083,0.0015,-0.0091,1.4
3.039,0.0007,-0.0083,0.003,-0.0105,1.3
3.04,0.0007,-0.0068,0.003,-0.0038,1.3
3.041,-0.0008,-0.0038,0.0045,-0.0015,1.3
3.042,-0.0008,-0.0015,0.003,-0.003,1.2
3.043,0.0,-0.0008,0.0007,-0.003,1.1
