Time_s,RF,BF,VM,ST,FX
0.0,0.0015,0.0052,0.0075,-0.006,-46.0
0.001,0.0015,0.003,0.0052,-0.0053,-46.0
0.002,-0.003,0.0015,0.009,-0.0038,-46.0
0.003,-0.003,0.003,0.012,-0.003,-45.9
0.004,0.0,0.0045,0.0142,-0.0008,-45.9
0.005,0.0007,0.0015,0.0157,0.0,-45.9
0.006,0.0037,-0.0015,0.0067,-0.003,-45.9
0.007,0.003,0.0,-0.0008,-0.0008,-45.8
0.008,0.0015,-0.0015,-0.012,0.0007,-45.8
0.009,0.0007,-0.003,-0.0233,0.0007,-45.8
0.01,0.0015,-0.0038,-0.0248,0.0,-45.7
0.011,-0.003,-0.006,-0.0285,-0.0008,-45.7
0.012,-0.0053,-0.0053,-0.0256,-0.0008,-45.7
0.013,-0.0023,-0.0053,-0.0195,-0.0008,-45.6
0.014,-0.0015,-0.0053,-0.0105,0.0007,-45.6
0.015,0.0,-0.0046,-0.0053,0.0015,-45.5
0.016,-0.0015,-0.0046,-0.0015,0.0007,-45.5
0.017,-0.0046,-0.0038,0.0075,0.003,-45.5
0.018,-0.0015,0.0,0.0127,0.0045,-45.5
0.019,-0.0046,0.0007,0.0165,0.0045,-45.5
0.02,-0.0046,0.0007,0.0187,0.0045,-45.4
0.021,-0.0023,0.0022,0.0202,0.0015,-45.4
0.022,-0.0053,0.0037,0.0202,0.0007,-45.3
0.023,-0.0046,0.003,0.0142,-0.0008,-45.3
0.024,-0.0038,0.0022,0.0097,-0.0015,-45.2
0.025,-0.0008,0.0037,0.0045,-0.0015,-45.2
0.026,0.0007,0.0037,0.0015,-0.003,-45.2
0.027,0.0,0.0015,-0.0015,-0.003,-45.1
0.028,-0.003,0.0022,-0.0008,-0.003,-45.1
0.029,-0.0046,0.0,0.0007,-0.0023,-45.0
0.03,-0.0015,-0.0008,-0.0008,-0.0015,-45.0
0.031,-0.003,-0.0015,0.0007,-0.0015,-45.0
0.032,-0.0015,-0.003,0.0022,-0.0015,-44.9
0.033,-0.0046,-0.0023,0.0082,-0.0015,-44.9
0.034,-0.003,-0.0015,0.0082,-0.0008,-44.8
0.035,0.0,-0.003,0.0105,-0.0008,-44.8
0.036,-0.0015,-0.003,0.012,-0.0008,-44.8
0.037,-0.0008,-0.0023,0.0045,-0.0008,-44.7
0.038,-0.0046,-0.003,0.006,-0.0015,-44.7
0.039,-0.0053,-0.003,0.0067,-0.0008,-44.6
0.04,-0.003,-0.0038,0.0045,-0.0008,-44.6
0.041,-0.0053,-0.0053,-0.0008,0.0,-44.6
0.042,-0.0068,-0.0046,-0.0053,-0.0008,-44.5
0.043,-0.0068,-0.0015,-0.0083,-0.0008,-44.5
0.044,-0.0091,-0.0015,-0.0083,0.0015,-44.4
0.045,-0.0128,-0.0008,-0.0046,-0.0008,-44.3
0.046,-0.0135,0.0007,0.0007,-0.0008,-44.3
0.047,-0.0181,0.0007,0.0015,0.0,-44.2
0.048,-0.0195,-0.0008,0.003,-0.0008,-44.2
0.049,-0.0203,-0.0015,0.006,-0.0008,-44.1
0.05,-0.0263,-0.0015,0.0052,-0.003,-44.1
0.051,-0.0263,-0.0023,0.0075,-0.0015,-44.0
0.052,-0.0278,-0.0023,0.009,-0.0008,-44.0
0.053,-0.0315,-0.0023,0.0075,0.0,-43.9
0.054,-0.0346,-0.003,0.0082,0.0007,-43.9
0.055,-0.0375,-0.003,0.0052,-0.0008,-43.8
0.056,-0.039,-0.0008,0.0052,0.0007,-43.8
0.057,-0.0383,0.0007,0.0045,0.0,-43.7
0.058,-0.039,0.0007,0.0022,0.0,-43.7
0.059,-0.0383,0.0007,0.0052,0.0,-43.6
0.06,-0.0315,0.0015,0.0007,0.0022,-43.6
0.061,-0.0181,0.0015,0.0015,0.003,-43.5
0.062,0.0052,0.0015,0.0015,0.0007,-43.4
0.063,0.039,0.0007,-0.0008,0.0022,-43.4
0.064,0.066,0.0,0.0007,0.0022,-43.3
0.065,0.0825,-0.0015,-0.0053,0.003,-43.2
0.066,0.0907,-0.003,-0.0046,0.0037,-43.2
0.067,0.0885,-0.0008,-0.003,0.0022,-43.1
0.068,0.084,-0.0008,-0.0038,0.0015,-43.0
0.069,0.075,-0.0015,-0.0046,0.0015,-42.9
0.07,0.0675,0.0,-0.003,-0.0008,-42.9
0.071,0.0607,0.0,0.003,-0.0008,-42.8
0.072,0.054,-0.0008,0.0015,-0.0023,-42.8
0.073,0.0517,-0.0008,0.0015,-0.0046,-42.7
0.074,0.0427,-0.0015,-0.0015,-0.003,-42.6
0.075,0.039,-0.0015,-0.0008,-0.0023,-42.5
0.076,0.0405,-0.0008,0.003,-0.0015,-42.5
0.077,0.0345,0.0007,-0.0008,-0.0023,-42.4
0.078,0.039,0.0015,0.003,-0.0015,-42.3
0.079,0.0367,0.0007,0.0,-0.0015,-42.3
0.08,0.0382,0.0,-0.0015,-0.0008,-42.2
0.081,0.0405,0.0015,-0.0023,-0.0008,-42.1
0.082,0.0345,0.0007,-0.006,-0.0023,-42.0
0.083,0.0345,0.0007,-0.0068,0.0007,-41.9
0.084,0.0255,-0.0008,-0.0105,-0.0008,-41.9
0.085,0.018,-0.0008,-0.0105,-0.0008,-41.8
0.086,0.0097,0.0007,-0.0128,0.0,-41.7
0.087,0.0007,0.0,-0.012,0.0,-41.6
0.088,-0.0023,0.0,-0.0075,-0.0008,-41.5
0.089,-0.0113,-0.0015,-0.0015,0.0015,-41.4
0.09,-0.0181,-0.0015,0.003,0.003,-41.3
0.091,-0.0285,0.0007,0.0015,0.0007,-41.2
0.092,-0.042,-0.0015,0.0007,-0.0015,-41.1
0.093,-0.0473,-0.003,0.0007,-0.0046,-41.0
0.094,-0.0563,-0.0038,0.0015,-0.0038,-41.0
0.095,-0.06,-0.003,0.0007,-0.0015,-40.9
0.096,-0.0593,-0.0023,0.0007,-0.0015,-40.8
0.097,-0.0593,-0.0038,0.0045,-0.0008,-40.7
0.098,-0.0518,-0.0053,0.0052,-0.0023,-40.6
0.099,-0.042,-0.0053,0.0082,-0.0015,-40.5
0.1,-0.0308,-0.0038,0.006,0.0,-40.4
0.101,-0.015,-0.0038,0.0067,0.0007,-40.3
0.102,0.0,-0.0023,0.0067,0.0022,-40.2
0.103,0.0217,-0.0008,0.0082,0.003,-40.1
0.104,0.0457,-0.0023,0.0105,0.0007,-40.0
0.105,0.0682,-0.0008,0.0075,-0.0015,-39.8
0.106,0.09,-0.0008,0.006,-0.0023,-39.7
0.107,0.0967,-0.0008,0.0052,-0.0008,-39.6
0.108,0.0915,-0.0015,0.006,0.0015,-39.5
0.109,0.0765,-0.0008,0.0052,0.0015,-39.4
0.11,0.0517,0.0015,0.003,-0.0008,-39.2
0.111,0.024,0.0,0.0007,-0.0008,-39.1
0.112,-0.0098,0.0,0.0007,-0.0008,-39.0
0.113,-0.0353,-0.0015,0.003,0.0007,-38.9
0.114,-0.0533,-0.0068,0.0015,-0.0008,-38.8
0.115,-0.0706,-0.0068,0.0045,-0.0008,-38.7
0.116,-0.078,-0.0046,0.0052,0.0015,-38.5
0.117,-0.0893,-0.0053,0.0045,0.0007,-38.4
0.118,-0.0938,-0.003,0.0045,0.0007,-38.3
0.119,-0.0893,-0.003,0.0045,0.0007,-38.2
0.12,-0.0833,-0.0023,0.0067,0.0,-38.1
0.121,-0.0765,0.0015,0.006,-0.0008,-37.9
0.122,-0.0735,0.0,0.0052,-0.0015,-37.8
0.123,-0.0683,-0.0015,0.009,-0.0008,-37.6
0.124,-0.0653,0.0015,0.0105,-0.0008,-37.5
0.125,-0.0593,0.0045,0.012,0.0007,-37.3
0.126,-0.0495,0.0045,0.0127,0.0007,-37.2
0.127,-0.0458,0.003,0.012,-0.0015,-37.0
0.128,-0.0361,-0.0008,0.0097,-0.0038,-36.9
0.129,-0.0323,-0.0046,-0.0008,-0.0053,-36.7
0.13,-0.0308,-0.0046,-0.0038,-0.003,-36.5
0.131,-0.024,-0.0008,-0.0023,0.0007,-36.4
0.132,-0.0233,0.0067,-0.0023,0.003,-36.3
0.133,-0.0181,0.0082,0.0015,0.0022,-36.1
0.134,-0.012,0.003,0.0022,0.0007,-36.0
0.135,-0.0091,0.0015,0.0045,-0.003,-35.8
0.136,-0.0038,-0.0015,0.0045,-0.0068,-35.6
0.137,-0.0023,-0.0023,0.0045,-0.0075,-35.5
0.138,0.0,0.003,0.0067,-0.0023,-35.4
0.139,0.0007,0.0045,0.0045,-0.0008,-35.2
0.14,0.0015,0.0052,0.0045,0.0,-35.1
0.141,0.003,0.0045,0.009,0.0007,-34.9
0.142,0.003,0.0045,0.0165,0.0007,-34.7
0.143,0.0082,0.003,0.0157,0.0007,-34.5
0.144,0.0082,0.0015,0.0105,0.0015,-34.4
0.145,0.012,0.0045,0.0045,-0.0008,-34.2
0.146,0.0165,0.003,-0.0075,-0.0008,-34.0
0.147,0.018,0.0015,-0.012,0.0007,-33.8
0.148,0.0217,0.0007,-0.0181,0.0015,-33.7
0.149,0.0202,0.0,-0.0181,0.0022,-33.5
0.15,0.0157,0.0015,-0.012,0.0007,-33.3
0.151,0.009,0.0015,-0.0113,-0.0008,-33.2
0.152,-0.0008,0.0015,-0.0053,0.0007,-33.0
0.153,-0.0015,0.0007,-0.0008,0.0007,-32.8
0.154,0.0097,-0.0023,0.003,0.0007,-32.6
0.155,0.0225,-0.006,0.0007,-0.0023,-32.4
0.156,0.0307,-0.0038,0.003,-0.0053,-32.3
0.157,0.0315,-0.003,0.0097,-0.0053,-32.1
0.158,0.0247,0.0007,0.0082,-0.003,-32.0
0.159,0.015,0.006,0.0082,0.0,-31.8
0.16,0.009,0.0082,0.0082,0.0007,-31.6
0.161,0.0007,0.009,0.0067,0.0015,-31.4
0.162,-0.0046,0.0052,0.0052,0.0022,-31.2
0.163,-0.0038,0.0007,0.0037,0.0015,-31.0
0.164,-0.0053,-0.0105,0.0052,-0.0023,-30.8
0.165,-0.0015,-0.012,0.0045,-0.0015,-30.6
0.166,0.0,-0.0068,0.0045,-0.0008,-30.3
0.167,0.0052,-0.0053,0.003,-0.0023,-30.2
0.168,0.009,-0.0015,0.0037,-0.0023,-29.9
0.169,0.0075,-0.0015,0.0097,-0.0015,-29.7
0.17,0.006,-0.0008,0.0217,-0.0008,-29.5
0.171,-0.0015,0.0015,0.0315,0.0,-29.3
0.172,0.0007,0.0007,0.0232,0.0007,-29.1
0.173,0.0067,-0.0015,0.009,0.0015,-28.9
0.174,0.0075,-0.0008,-0.0098,0.0007,-28.7
0.175,0.0105,0.0015,-0.0263,0.0022,-28.5
0.176,0.0037,-0.0015,-0.0353,0.0015,-28.3
0.177,0.003,-0.003,-0.0405,0.0,-28.1
0.178,0.0052,-0.0046,-0.0368,0.0007,-27.9
0.179,0.006,-0.003,-0.0315,0.0015,-27.7
0.18,0.0105,-0.0015,-0.0195,0.003,-27.5
0.181,0.0045,0.0015,-0.0128,0.003,-27.2
0.182,0.0045,0.0015,-0.0083,0.0037,-27.0
0.183,0.0037,0.0015,-0.003,0.0007,-26.8
0.184,-0.0015,0.0022,0.0007,-0.0008,-26.6
0.185,0.0037,-0.0015,0.0015,-0.0015,-26.3
0.186,0.0045,-0.0015,-0.006,-0.0091,-26.1
0.187,0.0037,-0.003,-0.0068,-0.0068,-25.9
0.188,0.0045,-0.0008,-0.0098,-0.0038,-25.7
0.189,0.0,0.0007,-0.0091,-0.0015,-25.5
0.19,-0.0008,0.0022,0.0007,0.0015,-25.2
0.191,-0.0008,0.003,0.0067,-0.0008,-25.0
0.192,-0.0015,0.0022,0.0097,0.0022,-24.8
0.193,0.0037,0.0007,0.0022,-0.0008,-24.6
0.194,0.006,-0.0008,-0.003,-0.0015,-24.3
0.195,0.009,-0.0008,-0.0068,0.0,-24.1
0.196,0.0105,-0.0008,-0.0053,-0.0008,-23.9
0.197,0.0112,-0.003,0.0015,0.003,-23.7
0.198,0.0082,-0.003,0.0067,0.0037,-23.5
0.199,0.0045,0.0015,0.0142,0.0037,-23.3
0.2,0.0052,0.003,0.0127,0.003,-23.0
0.201,0.0015,0.0037,0.0195,0.003,-22.8
0.202,0.0007,0.0075,0.0232,0.0022,-22.6
0.203,0.0007,0.003,0.0247,0.0,-22.3
0.204,-0.003,-0.0075,0.0285,-0.0008,-22.1
0.205,-0.0046,-0.0143,0.0202,-0.003,-21.9
0.206,-0.0068,-0.0113,0.0157,-0.0038,-21.6
0.207,-0.0053,-0.003,0.0045,-0.0083,-21.4
0.208,-0.0046,-0.0038,-0.0008,-0.0083,-21.2
0.209,-0.006,0.006,-0.003,-0.0068,-20.9
0.21,-0.0046,0.0127,-0.0143,-0.0046,-20.7
0.211,-0.0113,0.009,-0.0181,-0.0008,-20.4
0.212,-0.0165,0.0052,-0.0203,0.0,-20.2
0.213,-0.0165,0.0037,-0.0143,0.0022,-20.0
0.214,-0.0068,0.0037,-0.0083,0.0015,-19.8
0.215,0.0037,0.0007,-0.0075,0.0007,-19.5
0.216,0.0142,0.0015,-0.0053,-0.0008,-19.3
0.217,0.0262,0.0015,-0.0046,-0.0008,-19.0
0.218,0.0262,0.003,0.0007,0.0007,-18.8
0.219,0.0232,0.0075,0.0007,0.0015,-18.5
0.22,0.0142,0.0052,0.0052,0.0045,-18.3
0.221,0.0015,0.0052,0.018,0.0037,-18.1
0.222,-0.0053,0.0007,0.0277,0.0052,-17.8
0.223,-0.015,-0.0046,0.0307,0.0045,-17.6
0.224,-0.0165,-0.0091,0.0352,0.0045,-17.4
0.225,-0.015,-0.0083,0.0367,0.0052,-17.1
0.226,-0.012,-0.0046,0.0262,0.0007,-16.9
0.227,-0.003,-0.003,0.0127,0.003,-16.7
0.228,-0.0015,0.0007,-0.0083,0.0037,-16.4
0.229,0.0015,0.0037,-0.027,0.0007,-16.2
0.23,0.0052,0.0082,-0.0383,-0.0015,-15.9
0.231,0.0045,0.0105,-0.042,-0.0008,-15.7
0.232,0.006,0.0082,-0.0315,-0.0008,-15.4
0.233,0.0067,0.003,-0.0068,-0.0046,-15.2
0.234,0.0052,-0.0068,0.0517,-0.006,-15.0
0.235,0.0007,-0.0195,0.078,-0.0098,-14.7
0.236,-0.0053,-0.027,0.063,-0.0091,-14.5
0.237,-0.0128,-0.0225,0.0442,-0.0053,-14.3
0.238,-0.0158,-0.0128,-0.003,-0.003,-14.0
0.239,-0.0143,-0.0023,-0.039,0.0015,-13.8
0.24,-0.0143,0.012,-0.0638,0.0075,-13.5
0.241,-0.0091,0.024,-0.0675,0.0082,-13.3
0.242,-0.0015,0.0217,-0.048,0.0067,-13.1
0.243,0.0022,0.003,-0.0285,0.0045,-12.9
0.244,0.0052,-0.0083,0.0007,0.0052,-12.7
0.245,0.0082,-0.0083,0.0157,0.0045,-12.5
0.246,0.006,-0.0091,0.0367,-0.0008,-12.3
0.247,0.0067,-0.0068,0.051,-0.0015,-12.1
0.248,0.0097,0.0022,0.0457,-0.0038,-11.8
0.249,0.0052,0.012,0.0352,-0.0068,-11.7
0.25,0.003,0.0067,0.0142,-0.0083,-11.4
0.251,-0.0015,0.0037,0.0067,-0.0038,-11.2
0.252,-0.0091,0.0067,-0.0008,0.0,-11.0
0.253,-0.012,-0.0046,0.003,-0.0038,-10.8
0.254,-0.012,-0.0165,0.0105,-0.006,-10.6
0.255,-0.0053,-0.027,0.0247,-0.006,-10.4
0.256,-0.003,-0.0203,0.0517,-0.0046,-10.2
0.257,-0.0008,-0.0038,0.0532,-0.0008,-9.9
0.258,0.0007,0.0022,0.0427,0.0015,-9.7
0.259,0.003,0.009,0.027,0.0037,-9.5
0.26,0.006,0.0127,0.0082,0.0037,-9.3
0.261,0.006,0.0022,0.0202,0.006,-9.1
0.262,0.0105,-0.0053,0.027,0.0045,-9.0
0.263,0.0105,0.0015,0.0067,-0.0015,-8.8
0.264,0.0015,0.0045,-0.0098,-0.0008,-8.6
0.265,-0.0046,0.0075,-0.0436,0.0015,-8.5
0.266,-0.0053,0.0187,-0.0653,0.0007,-8.3
0.267,-0.0046,0.0142,-0.078,-0.0008,-8.1
0.268,-0.0046,0.0007,-0.0765,-0.003,-8.0
0.269,-0.0023,0.0045,-0.0458,0.0007,-7.8
0.27,-0.0046,0.012,-0.0233,0.0022,-7.7
0.271,-0.0053,0.0037,0.0007,-0.0008,-7.5
0.272,-0.006,-0.0068,0.0037,-0.0008,-7.3
0.273,-0.0068,-0.0068,0.018,0.003,-7.2
0.274,-0.0068,-0.0068,0.048,0.0045,-7.0
0.275,-0.0083,-0.0083,0.087,0.0037,-6.8
0.276,-0.0068,0.0052,0.1042,0.0045,-6.7
0.277,-0.003,0.0217,0.063,0.0067,-6.5
0.278,-0.006,0.027,0.0232,0.0082,-6.3
0.279,-0.012,0.0165,-0.0383,0.0007,-6.2
0.28,-0.012,0.0007,-0.0758,-0.006,-6.0
0.281,-0.0083,-0.0128,-0.0833,-0.0068,-5.9
0.282,0.0045,-0.0256,-0.0728,-0.0165,-5.7
0.283,0.0157,-0.0218,-0.0353,-0.0165,-5.6
0.284,0.021,-0.0091,-0.0068,0.003,-5.5
0.285,0.0277,0.0045,0.021,0.0367,-5.4
0.286,0.0277,0.0052,0.0217,0.057,-5.2
0.287,0.0247,-0.0053,0.0217,-0.0023,-5.1
0.288,0.018,-0.0105,0.0007,-0.057,-5.0
0.289,0.0082,-0.0143,-0.0315,-0.039,-4.8
0.29,-0.003,0.0022,-0.0405,-0.0308,-4.7
0.291,-0.0135,0.0232,-0.0645,-0.0091,-4.6
0.292,-0.0135,0.0292,-0.0593,0.003,-4.5
0.293,-0.0091,0.0352,-0.0503,-0.0015,-4.3
0.294,-0.0068,0.0232,-0.0285,-0.003,-4.2
0.295,-0.003,-0.0113,0.0007,-0.021,-4.1
0.296,-0.0038,-0.0405,0.012,-0.0256,-3.9
0.297,-0.0053,-0.0338,0.0375,-0.0023,-3.8
0.298,-0.006,-0.0143,0.0412,0.0502,-3.7
0.299,-0.0038,-0.0105,0.042,0.0615,-3.6
0.3,0.0015,-0.0053,0.0315,0.054,-3.4
0.301,-0.0015,-0.0158,0.0202,0.0457,-3.4
0.302,-0.0053,-0.024,0.0217,0.0277,-3.3
0.303,-0.0068,-0.0008,0.012,0.033,-3.2
0.304,-0.0105,0.024,0.0097,0.0142,-3.2
0.305,-0.0068,0.0307,0.0007,-0.0098,-3.1
0.306,-0.0008,0.0315,-0.0015,-0.0691,-3.0
0.307,0.0067,0.039,0.003,-0.15,-3.0
0.308,0.0097,0.0457,0.003,-0.1088,-2.9
0.309,0.0067,0.0225,0.0112,-0.0023,-2.8
0.31,0.0015,-0.0128,0.012,0.0075,-2.7
0.311,-0.006,-0.0346,0.0097,-0.0083,-2.7
0.312,-0.0083,-0.0368,0.003,0.0022,-2.7
0.313,-0.0083,-0.0143,0.006,0.0045,-2.6
0.314,-0.012,0.0075,0.0187,0.0165,-2.5
0.315,-0.012,0.0217,0.033,0.0082,-2.4
0.316,-0.012,0.0217,0.0405,-0.0008,-2.4
0.317,-0.0128,0.0082,0.0322,-0.0128,-2.3
0.318,-0.0075,0.0127,0.0292,-0.003,-2.3
0.319,-0.0083,0.0397,0.0442,0.0577,-2.2
0.32,-0.0053,0.045,0.0787,0.063,-2.1
0.321,-0.0015,0.0045,0.075,-0.0083,-2.1
0.322,-0.0008,-0.0225,0.0345,-0.0525,-2.1
0.323,0.0045,-0.0248,-0.021,-0.0353,-2.1
0.324,0.0067,-0.048,-0.0848,0.0007,-2.1
0.325,0.0045,-0.0585,-0.1268,-0.0105,-2.1
0.326,0.0015,-0.078,-0.156,0.0045,-2.1
0.327,-0.003,-0.1125,-0.1485,0.0742,-2.1
0.328,-0.0068,-0.12,-0.1043,0.0937,-2.1
0.329,-0.0008,-0.105,-0.0555,0.0855,-2.1
0.33,-0.0068,-0.0518,-0.003,0.09,-2.1
0.331,-0.021,0.0382,0.0382,0.1095,-2.1
0.332,-0.0218,0.1245,0.057,0.1042,-2.1
0.333,-0.0233,0.1755,0.0592,0.0442,-2.1
0.334,-0.0143,0.126,0.0525,-0.0293,-2.1
0.335,-0.003,-0.0256,0.0345,-0.0825,-2.1
0.336,0.0015,-0.1043,0.0157,-0.1155,-2.1
0.337,0.0105,-0.099,0.0082,-0.159,-2.1
0.338,0.0135,-0.039,0.0082,-0.2385,-2.1
0.339,0.0195,0.1035,0.0105,-0.231,-2.1
0.34,0.024,0.2272,0.0112,-0.0833,-2.1
0.341,0.0135,0.2805,0.0217,0.0292,-2.1
0.342,-0.003,0.2017,0.042,0.1125,-2.2
0.343,-0.0091,0.081,0.0555,0.165,-2.2
0.344,-0.0128,0.012,0.0517,0.1612,-2.3
0.345,-0.015,-0.054,0.0375,0.1552,-2.3
0.346,-0.0128,-0.0728,0.0277,0.0862,-2.3
0.347,-0.0083,-0.0773,0.0465,0.0255,-2.4
0.348,0.0045,-0.0803,0.075,-0.0165,-2.4
0.349,0.0157,-0.0818,0.0727,-0.0713,-2.5
0.35,0.0142,-0.0825,0.051,-0.0721,-2.5
0.351,-0.0015,-0.0615,0.0045,-0.0308,-2.6
0.352,-0.0105,-0.042,-0.0488,0.0682,-2.6
0.353,-0.0143,-0.0263,-0.0728,0.0967,-2.7
0.354,-0.0188,-0.0263,-0.0885,-0.0158,-2.7
0.355,-0.0008,-0.0218,-0.0818,-0.1118,-2.7
0.356,0.0165,-0.0248,-0.0706,-0.1478,-2.8
0.357,0.0262,-0.0203,-0.063,-0.1785,-2.8
0.358,0.0277,0.0022,-0.0405,-0.1823,-2.9
0.359,0.0127,0.024,-0.0315,-0.0683,-2.9
0.36,-0.0046,0.03,-0.027,0.1132,-3.0
0.361,-0.0285,-0.006,-0.0158,0.24,-3.1
0.362,-0.0518,-0.0398,0.009,0.2535,-3.1
0.363,-0.0623,-0.081,0.0405,0.165,-3.2
0.364,-0.063,-0.1305,0.0547,0.0847,-3.3
0.365,-0.0548,-0.129,0.0645,-0.0915,-3.4
0.366,-0.0353,-0.0893,0.069,-0.2806,-3.4
0.367,0.003,-0.0173,0.057,-0.1643,-3.5
0.368,0.0532,-0.0165,0.045,-0.0428,-3.6
0.369,0.087,-0.105,0.0322,-0.012,-3.6
0.37,0.0885,-0.1298,0.0232,-0.0398,-3.7
0.371,0.0667,-0.1095,0.0292,-0.1838,-3.8
0.372,0.0352,-0.0046,0.0585,-0.1853,-3.9
0.373,0.03,0.1672,0.075,-0.099,-4.0
0.374,0.0607,0.3195,0.048,0.1477,-4.1
0.375,0.0892,0.3817,0.0127,0.2497,-4.1
0.376,0.0885,0.3037,-0.0405,0.1177,-4.2
0.377,0.0562,0.1972,-0.081,0.1087,-4.3
0.378,0.012,0.06,-0.0848,0.0465,-4.4
0.379,-0.0323,-0.0233,-0.0638,-0.0128,-4.4
0.38,-0.0668,-0.0436,-0.0361,-0.0203,-4.5
0.381,-0.0818,-0.0615,-0.0256,-0.0173,-4.5
0.382,-0.084,-0.0518,0.003,0.0157,-4.6
0.383,-0.0758,-0.0511,0.0105,0.0555,-4.6
0.384,-0.0563,-0.0248,-0.0015,0.1927,-4.7
0.385,-0.0338,0.0,0.0127,0.2122,-4.7
0.386,-0.0098,-0.0038,0.045,0.0165,-4.8
0.387,0.0105,-0.0308,0.063,-0.0405,-4.8
0.388,0.0225,-0.0548,0.0405,-0.0143,-4.9
0.389,0.0255,-0.0765,0.0142,-0.0503,-4.9
0.39,0.0052,-0.0893,-0.0315,-0.0308,-5.0
0.391,-0.0195,-0.0653,-0.0743,-0.0436,-5.0
0.392,-0.0315,-0.057,-0.0848,-0.0615,-5.0
0.393,-0.0308,-0.0653,-0.0863,-0.0706,-5.0
0.394,-0.0256,-0.105,-0.0503,-0.0728,-5.1
0.395,-0.0128,-0.1463,0.0097,-0.105,-5.1
0.396,0.0037,-0.1448,0.0675,-0.147,-5.2
0.397,0.0112,-0.1275,0.075,-0.105,-5.2
0.398,0.0157,-0.1043,0.027,-0.0803,-5.3
0.399,0.0195,-0.0578,-0.0368,-0.0353,-5.3
0.4,0.0225,0.0427,-0.093,-0.0218,-5.4
0.401,0.0232,0.1522,-0.1193,-0.033,-5.4
0.402,0.0127,0.2197,-0.1028,0.0982,-5.3
0.403,-0.0075,0.294,-0.0615,0.2445,-5.3
0.404,-0.027,0.3165,-0.0225,0.2212,-5.2
0.405,-0.039,0.237,0.0255,0.1492,-5.1
0.406,-0.045,0.1162,0.075,0.0772,-5.1
0.407,-0.0315,-0.0068,0.114,-0.0368,-5.0
0.408,-0.0098,-0.0706,0.141,-0.0285,-5.0
0.409,0.0165,-0.0953,0.129,0.0675,-5.0
0.41,0.0427,-0.1073,0.0817,0.0645,-4.9
0.411,0.0585,-0.1035,0.018,-0.0068,-4.8
0.412,0.0682,-0.0893,-0.0488,-0.042,-4.8
0.413,0.045,-0.0555,-0.0915,-0.0361,-4.7
0.414,0.0195,-0.0443,-0.1215,-0.0218,-4.7
0.415,0.009,-0.0608,-0.1253,-0.0825,-4.6
0.416,-0.0098,-0.1073,-0.0938,-0.0871,-4.6
0.417,-0.0181,-0.1365,-0.0638,-0.0353,-4.5
0.418,-0.0278,-0.093,-0.0195,-0.1013,-4.5
0.419,-0.0293,-0.0225,0.0225,-0.123,-4.4
0.42,-0.0248,0.0127,0.0517,-0.1598,-4.4
0.421,-0.0218,0.0015,0.0712,-0.1411,-4.4
0.422,-0.0068,-0.0015,0.0742,-0.0278,-4.4
0.423,0.0,0.012,0.0765,-0.0165,-4.4
0.424,0.012,-0.003,0.0675,0.1627,-4.4
0.425,0.0217,-0.0436,0.0517,0.2932,-4.5
0.426,0.0262,-0.0465,0.0277,0.015,-4.5
0.427,0.0277,-0.012,-0.0015,-0.2783,-4.5
0.428,0.0105,0.0577,-0.0098,-0.2438,-4.5
0.429,0.003,0.1522,-0.0046,-0.0083,-4.5
0.43,0.0007,0.207,0.0045,0.1605,-4.6
0.431,-0.0068,0.2107,0.0082,0.1312,-4.6
0.432,-0.0046,0.1567,0.0157,0.1117,-4.6
0.433,-0.0091,0.0877,0.0232,0.1432,-4.7
0.434,-0.0068,0.0322,0.0225,0.0697,-4.7
0.435,-0.0053,0.0,0.021,0.006,-4.7
0.436,-0.006,-0.0405,0.009,-0.0503,-4.8
0.437,-0.0046,-0.066,0.0007,-0.0413,-4.8
0.438,-0.0075,-0.0503,-0.0068,0.0615,-4.8
0.439,0.0,-0.0428,-0.0181,0.099,-4.8
0.44,0.0015,-0.0495,-0.0181,0.0255,-4.9
0.441,0.0015,-0.0653,-0.0105,-0.0158,-5.0
0.442,0.0015,-0.0765,0.0052,0.0315,-5.2
0.443,-0.0091,-0.0953,0.006,0.0495,-5.3
0.444,-0.0105,-0.0878,0.0045,0.0345,-5.4
0.445,-0.0113,-0.0563,0.0075,0.0307,-5.6
0.446,-0.0173,-0.033,0.0052,0.0307,-5.8
0.447,-0.027,-0.0181,0.012,0.003,-5.9
0.448,-0.0488,-0.0181,0.0112,0.0007,-6.0
0.449,-0.0473,-0.015,0.0105,-0.015,-6.2
0.45,-0.0315,-0.0143,0.0142,-0.0293,-6.3
0.451,-0.0158,-0.0128,0.0142,-0.0293,-6.5
0.452,0.0165,-0.0098,0.0165,-0.075,-6.6
0.453,0.0532,-0.0068,0.0052,-0.1605,-6.8
0.454,0.0862,-0.0015,-0.0173,-0.237,-6.9
0.455,0.1042,-0.0105,-0.0323,-0.1493,-7.1
0.456,0.0975,-0.0203,-0.0405,-0.048,-7.2
0.457,0.0562,-0.0203,-0.0443,-0.006,-7.3
0.458,0.0015,-0.0098,-0.0533,0.0315,-7.5
0.459,-0.033,0.0127,-0.0638,0.0195,-7.7
0.46,-0.0593,0.033,-0.0735,0.057,-7.8
0.461,-0.0721,0.0457,-0.0773,0.093,-7.9
0.462,-0.0721,0.066,-0.0683,0.1515,-8.1
0.463,-0.0593,0.075,-0.0555,0.144,-8.2
0.464,-0.0323,0.057,-0.0413,0.0225,-8.3
0.465,-0.0128,0.0442,-0.0315,0.0292,-8.5
0.466,0.0007,0.0345,-0.0128,0.066,-8.6
0.467,0.0127,0.0157,0.0075,0.0367,-8.8
0.468,0.018,0.0052,0.0195,-0.0038,-8.9
0.469,0.0165,0.0045,0.0322,-0.0218,-9.0
0.47,0.0127,0.003,0.0352,-0.0375,-9.2
0.471,0.0082,0.0067,0.0315,-0.06,-9.3
0.472,0.003,0.0082,0.021,-0.0488,-9.5
0.473,-0.0015,0.0,0.006,-0.0181,-9.6
0.474,-0.0083,0.0082,0.003,0.009,-9.7
0.475,-0.0083,0.0165,0.0082,0.0285,-9.9
0.476,0.0037,0.0015,0.0,0.0232,-10.0
0.477,0.0067,-0.0203,-0.0098,0.0105,-10.2
0.478,0.0022,-0.027,-0.0015,0.021,-10.3
0.479,-0.0068,-0.0398,0.018,0.021,-10.4
0.48,-0.0098,-0.0653,0.0562,0.0255,-10.6
0.481,-0.0113,-0.0615,0.1005,0.0277,-10.6
0.482,-0.0098,-0.027,0.105,-0.0091,-10.7
0.483,-0.015,0.0165,0.0795,-0.1006,-10.8
0.484,-0.0323,0.045,0.0615,-0.1335,-10.8
0.485,-0.0346,0.0772,0.0315,-0.0825,-10.9
0.486,-0.024,0.0915,-0.0091,-0.075,-11.0
0.487,-0.0083,0.0712,-0.0361,-0.0278,-11.0
0.488,0.0052,0.027,-0.0383,-0.0181,-11.1
0.489,0.0082,0.0105,-0.0173,-0.081,-11.2
0.49,0.018,0.018,0.0442,-0.0368,-11.3
0.491,0.03,-0.0083,0.1125,-0.0158,-11.3
0.492,0.0367,0.0097,0.1455,-0.0278,-11.3
0.493,0.0367,0.0165,0.1627,-0.0128,-11.4
0.494,0.006,-0.012,0.096,-0.0375,-11.5
0.495,-0.0353,-0.012,0.009,-0.024,-11.6
0.496,-0.0706,-0.0203,-0.054,0.0007,-11.6
0.497,-0.1028,-0.003,-0.111,0.0742,-11.7
0.498,-0.1021,0.0142,-0.1013,0.1635,-11.7
0.499,-0.0555,0.0045,-0.0818,0.1215,-11.8
0.5,0.0112,-0.012,-0.039,0.1065,-11.9
0.501,0.0592,-0.0165,0.0007,0.1492,-11.9
0.502,0.0877,-0.012,0.0157,0.1237,-11.8
0.503,0.0982,-0.015,0.0315,0.06,-11.8
0.504,0.0637,-0.0218,0.0382,0.0255,-11.8
0.505,0.0165,-0.0293,0.0457,-0.0256,-11.7
0.506,-0.0008,-0.0113,0.0285,-0.1095,-11.7
0.507,0.0127,0.0045,0.0105,-0.0938,-11.7
0.508,0.0352,0.015,-0.012,-0.0368,-11.7
0.509,0.066,0.0142,-0.021,-0.0248,-11.6
0.51,0.1042,0.009,-0.0128,-0.0353,-11.6
0.511,0.0952,0.0082,-0.0083,-0.0518,-11.6
0.512,0.0495,-0.0315,0.0015,-0.0315,-11.5
0.513,0.0052,-0.0698,0.0045,-0.0225,-11.5
0.514,-0.0405,-0.0743,0.0157,-0.0458,-11.5
0.515,-0.057,-0.0405,0.0232,-0.0443,-11.4
0.516,-0.0691,-0.0143,0.0015,-0.0375,-11.4
0.517,-0.0788,-0.0105,-0.0173,-0.0053,-11.3
0.518,-0.0721,-0.003,-0.0248,0.0622,-11.3
0.519,-0.054,-0.0015,-0.0225,0.1042,-11.3
0.52,-0.0256,0.0015,-0.0105,0.0832,-11.3
0.521,-0.012,-0.0008,-0.0128,0.0442,-11.2
0.522,-0.0053,0.0015,-0.0165,0.0217,-11.2
0.523,-0.0015,0.0007,-0.0263,0.006,-11.1
0.524,-0.0075,-0.0023,-0.0293,0.012,-11.1
0.525,-0.0128,-0.0053,-0.0293,-0.0098,-11.0
0.526,-0.0165,-0.0053,-0.0353,-0.0278,-11.0
0.527,-0.0143,-0.0046,-0.0285,0.0105,-10.9
0.528,-0.0158,-0.0083,-0.0338,0.0247,-10.9
0.529,-0.0203,-0.0023,-0.0263,0.0097,-10.8
0.53,-0.0195,0.0022,-0.0225,-0.0165,-10.8
0.531,-0.0158,-0.0053,-0.0181,-0.0863,-10.7
0.532,-0.0083,-0.0428,-0.0068,-0.1538,-10.7
0.533,0.0015,-0.0593,-0.0128,-0.189,-10.6
0.534,0.0067,-0.0188,-0.012,-0.189,-10.6
0.535,0.0067,0.006,-0.0023,-0.1441,-10.5
0.536,0.0067,0.0165,0.0195,0.0082,-10.5
0.537,0.0067,0.0442,0.0232,0.18,-10.4
0.538,0.0052,0.0675,0.0165,0.195,-10.4
0.539,0.0052,0.087,0.0052,0.1425,-10.4
0.54,0.006,0.087,-0.021,0.1132,-10.3
0.541,0.0052,0.0382,-0.0158,0.0517,-10.3
0.542,0.009,0.0015,-0.0023,0.0225,-10.3
0.543,0.0127,-0.0053,0.0105,0.012,-10.3
0.544,0.012,-0.0158,0.0142,-0.0083,-10.2
0.545,0.0127,-0.0105,-0.0023,0.0037,-10.2
0.546,0.021,-0.0105,-0.0233,-0.0105,-10.2
0.547,0.0232,-0.0143,-0.0428,-0.0015,-10.2
0.548,0.0165,-0.0143,-0.0465,-0.0023,-10.2
0.549,0.0037,-0.0128,-0.021,-0.0083,-10.1
0.55,-0.0105,0.0067,0.018,-0.0008,-10.1
0.551,-0.0135,0.0105,0.0457,-0.015,-10.1
0.552,-0.0143,-0.0083,0.0907,0.0045,-10.1
0.553,-0.0068,-0.0158,0.1305,0.0307,-10.1
0.554,0.0067,-0.0098,0.1072,0.0277,-10.0
0.555,0.0142,-0.0173,0.042,0.0015,-10.0
0.556,0.0307,-0.0165,-0.039,-0.0308,-10.0
0.557,0.0472,-0.0105,-0.1215,-0.0548,-10.0
0.558,0.0502,-0.006,-0.186,-0.0503,-10.0
0.559,0.0225,-0.0015,-0.198,-0.0368,-9.9
0.56,-0.0068,0.006,-0.1575,-0.0068,-9.9
0.561,-0.0233,0.0292,-0.09,0.0645,-9.9
0.562,-0.0428,0.0345,-0.0203,0.1042,-9.9
0.563,-0.0353,0.0127,0.0187,0.0465,-9.9
0.564,-0.0263,-0.0128,0.063,-0.0068,-9.9
0.565,-0.0143,-0.0203,0.0915,-0.03,-10.0
0.566,-0.0015,-0.012,0.0997,-0.0773,-10.0
0.567,-0.0143,0.0022,0.1005,-0.042,-10.0
0.568,-0.0248,0.012,0.072,0.0052,-10.0
0.569,-0.039,0.0217,0.0705,0.0105,-10.0
0.57,-0.042,0.036,0.063,0.0232,-10.0
0.571,-0.0383,0.0285,0.0517,0.0067,-10.0
0.572,-0.0195,-0.0008,0.042,-0.0218,-10.1
0.573,0.0165,-0.0143,0.0172,-0.0218,-10.1
0.574,0.039,0.0022,0.009,-0.0173,-10.1
0.575,0.0607,0.0165,0.0015,-0.0293,-10.1
0.576,0.0592,0.015,0.0037,-0.0248,-10.1
0.577,0.0495,-0.0046,0.0052,-0.0398,-10.1
0.578,0.0352,-0.0158,0.0067,-0.042,-10.1
0.579,0.0157,-0.006,0.0142,-0.0225,-10.2
0.58,0.0097,0.012,0.018,-0.0165,-10.2
0.581,-0.0075,0.0217,0.024,-0.0105,-10.2
0.582,-0.0203,0.0165,0.0195,0.0067,-10.2
0.583,-0.027,0.03,0.0082,0.0847,-10.2
0.584,-0.0315,0.0255,-0.0015,0.117,-10.2
0.585,-0.0293,-0.021,-0.0098,0.066,-10.2
0.586,-0.024,-0.0795,-0.0128,0.0502,-10.2
0.587,-0.0135,-0.1208,-0.0091,0.0007,-10.2
0.588,-0.006,-0.0818,-0.0008,-0.0653,-10.2
0.589,0.0,-0.0353,0.0127,-0.0495,-10.2
0.59,0.003,-0.024,0.045,-0.0518,-10.2
0.591,-0.0015,0.0022,0.0855,-0.0368,-10.2
0.592,-0.0165,0.0127,0.0975,-0.0135,-10.2
0.593,-0.0465,0.0247,0.1065,0.0067,-10.2
0.594,-0.0525,0.024,0.084,0.033,-10.2
0.595,-0.0293,0.0142,-0.003,0.0232,-10.3
0.596,0.0037,0.0142,-0.0765,0.0375,-10.3
0.597,0.0405,0.0082,-0.1598,0.0232,-10.3
0.598,0.0465,0.003,-0.1988,0.0045,-10.3
0.599,0.0397,-0.0083,-0.1763,0.0007,-10.3
0.6,0.03,-0.0203,-0.1118,0.0015,-10.3
0.601,0.018,-0.024,-0.0203,0.0067,-10.3
0.602,0.0105,-0.0278,0.0307,-0.0105,-10.3
0.603,-0.012,-0.0338,0.0787,-0.0285,-10.3
0.604,-0.0068,-0.0181,0.0735,-0.0863,-10.2
0.605,0.0052,0.003,0.063,-0.111,-10.2
0.606,0.0082,0.0195,0.0525,-0.0375,-10.2
0.607,0.0307,0.0315,0.0202,0.0015,-10.2
0.608,0.0367,0.0637,0.027,0.033,-10.2
0.609,0.0375,0.1147,0.0195,0.0705,-10.1
0.61,0.0277,0.0787,0.036,0.057,-10.1
0.611,-0.003,0.0082,0.0495,0.0472,-10.1
0.612,-0.0248,-0.0008,0.0607,0.0217,-10.1
0.613,-0.0398,-0.0105,0.0817,0.0202,-10.1
0.614,-0.0555,-0.012,0.0615,0.0187,-10.0
0.615,-0.0706,-0.0113,0.0465,0.003,-10.0
0.616,-0.0698,-0.0233,-0.0046,-0.0038,-10.0
0.617,-0.0563,-0.0195,-0.0608,-0.0105,-10.0
0.618,-0.0346,-0.0218,-0.1155,0.0052,-10.0
0.619,-0.0068,-0.0165,-0.159,0.003,-9.9
0.62,0.009,-0.015,-0.1328,-0.021,-9.9
0.621,0.0202,-0.0143,-0.093,-0.0788,-9.9
0.622,0.0247,-0.0105,-0.0256,-0.0645,-9.9
0.623,0.0217,-0.0023,0.0165,-0.0113,-9.9
0.624,0.0195,0.0232,0.0315,-0.0233,-9.9
0.625,0.0112,0.0307,0.0502,0.0052,-9.8
0.626,0.0097,0.018,0.0427,0.0082,-9.8
0.627,0.0097,-0.0046,0.048,0.0127,-9.8
0.628,0.006,-0.0308,0.0412,0.027,-9.8
0.629,0.0067,-0.0458,0.039,0.0127,-9.7
0.63,0.0052,-0.0465,0.039,0.0255,-9.7
0.631,0.0082,-0.0398,0.0345,0.0165,-9.7
0.632,0.0127,-0.0346,0.042,0.015,-9.6
0.633,0.012,-0.0188,0.03,0.0052,-9.6
0.634,0.0105,-0.0083,0.0315,-0.0188,-9.6
0.635,0.0067,-0.0091,0.0315,-0.027,-9.6
0.636,0.0,-0.0098,0.0307,-0.0128,-9.5
0.637,-0.0105,-0.003,0.0292,0.003,-9.5
0.638,-0.0248,0.0172,0.0105,0.0015,-9.5
0.639,-0.0338,0.0315,0.0067,0.0105,-9.5
0.64,-0.027,0.033,-0.0075,0.0052,-9.5
0.641,-0.0113,0.0142,-0.0203,0.0037,-9.5
0.642,0.0142,0.0007,-0.024,0.0045,-9.4
0.643,0.042,0.0052,-0.024,0.0007,-9.4
0.644,0.0472,-0.0023,0.0052,0.0015,-9.4
0.645,0.0315,-0.0015,0.0382,0.0052,-9.4
0.646,0.0142,0.003,0.0457,0.012,-9.4
0.647,0.003,-0.0053,0.0315,0.0067,-9.3
0.648,-0.0113,-0.0053,-0.0091,-0.0015,-9.3
0.649,-0.0128,0.0082,-0.0405,-0.0075,-9.3
0.65,-0.0046,0.0232,-0.0615,-0.0083,-9.3
0.651,0.0007,0.0187,-0.0758,-0.0075,-9.3
0.652,0.0157,0.006,-0.0495,-0.003,-9.2
0.653,0.0277,0.003,-0.0143,0.0007,-9.2
0.654,0.0277,0.0045,0.0127,-0.0038,-9.2
0.655,0.0142,0.0112,0.0217,-0.003,-9.2
0.656,-0.0053,0.006,0.033,-0.0038,-9.2
0.657,-0.0181,0.0075,0.0367,-0.0015,-9.1
0.658,-0.0315,0.0127,0.0187,0.0,-9.1
0.659,-0.0383,0.0127,0.012,-0.003,-9.1
0.66,-0.0338,0.024,-0.0023,0.0,-9.1
0.661,-0.024,0.0165,-0.0083,0.0067,-9.1
0.662,-0.015,0.0015,-0.0083,0.006,-9.0
0.663,-0.0143,-0.021,-0.0053,-0.0008,-9.0
0.664,-0.0143,-0.0465,0.0022,-0.0046,-9.0
0.665,-0.012,-0.0443,-0.0008,-0.0053,-9.0
0.666,-0.012,-0.024,0.0007,-0.003,-9.0
0.667,-0.0053,-0.0098,-0.0075,0.0,-9.0
0.668,-0.0008,0.0172,-0.0128,0.0082,-9.0
0.669,0.0022,0.0577,-0.015,0.015,-9.0
0.67,0.0075,0.06,-0.0135,0.0157,-9.0
0.671,0.0067,0.0345,-0.0083,0.009,-9.0
0.672,0.0097,-0.003,-0.0113,-0.003,-8.9
0.673,0.009,-0.0233,-0.0091,-0.0068,-8.9
0.674,0.0075,-0.0091,-0.0165,-0.0113,-8.9
0.675,0.003,-0.0008,-0.0233,-0.0113,-8.9
0.676,0.0022,0.006,-0.033,-0.0128,-8.9
0.677,0.0052,0.0187,-0.0428,-0.0256,-8.9
0.678,0.0022,0.0337,-0.0405,-0.0135,-8.9
0.679,-0.0015,0.0307,-0.0398,0.0255,-8.8
0.68,-0.0053,0.0255,-0.0278,0.0292,-8.8
0.681,-0.0053,0.0225,-0.0165,0.0157,-8.8
0.682,-0.003,0.0015,-0.0015,0.0112,-8.8
0.683,0.0015,-0.012,0.0195,-0.0083,-8.8
0.684,0.0067,-0.033,0.03,-0.0038,-8.8
0.685,0.0082,-0.0533,0.0345,-0.0046,-8.7
0.686,0.0045,-0.0473,0.0202,-0.0053,-8.7
0.687,0.0045,-0.027,0.0022,0.0007,-8.7
0.688,0.009,-0.012,-0.0143,-0.0053,-8.7
0.689,0.0052,-0.0105,-0.0248,-0.003,-8.7
0.69,0.003,-0.0023,-0.0256,-0.0023,-8.6
0.691,0.0015,-0.0015,-0.027,0.0015,-8.6
0.692,-0.0023,0.0022,-0.0203,0.003,-8.6
0.693,-0.0023,0.0082,-0.0165,0.0015,-8.6
0.694,-0.003,0.015,-0.012,-0.0015,-8.6
0.695,-0.0015,0.0105,-0.0105,-0.0068,-8.6
0.696,0.0007,-0.006,-0.0068,-0.003,-8.6
0.697,0.0,-0.0008,-0.003,0.0015,-8.6
0.698,-0.0015,0.012,-0.003,0.012,-8.6
0.699,-0.0023,0.0217,0.0052,0.0105,-8.5
0.7,-0.0038,0.0052,0.0067,0.003,-8.5
0.701,-0.003,-0.021,0.009,0.003,-8.5
0.702,0.0015,-0.0285,0.0135,-0.0053,-8.5
0.703,0.0007,-0.048,0.015,-0.0105,-8.4
0.704,-0.0023,-0.048,0.0202,-0.0075,-8.4
0.705,-0.0053,-0.0165,0.0172,-0.0015,-8.4
0.706,-0.0046,0.0067,0.0157,0.0052,-8.4
0.707,-0.0046,0.0285,0.0165,0.0105,-8.3
0.708,-0.0038,0.0352,0.0157,0.0082,-8.3
0.709,-0.003,0.0255,0.0165,0.0067,-8.3
0.71,-0.0053,0.0195,0.0142,0.0082,-8.2
0.711,-0.0075,0.012,0.0127,0.0022,-8.2
0.712,-0.021,-0.0008,0.0142,-0.0068,-8.2
0.713,-0.0361,-0.0181,0.0232,-0.0128,-8.2
0.714,-0.0308,-0.021,0.0442,-0.0053,-8.1
0.715,-0.0195,-0.0308,0.0622,-0.0046,-8.1
0.716,-0.0053,-0.0405,0.0675,-0.0068,-8.1
0.717,0.0165,-0.0233,0.0607,-0.0015,-8.1
0.718,0.0352,-0.0128,0.0315,-0.0008,-8.1
0.719,0.048,-0.0046,-0.0158,-0.0015,-8.1
0.72,0.0502,0.003,-0.0638,-0.0008,-8.0
0.721,0.0405,0.0045,-0.1065,-0.0038,-8.0
0.722,0.021,0.0022,-0.126,-0.0075,-8.0
0.723,0.009,0.0037,-0.1088,-0.0068,-7.9
0.724,0.0052,0.0112,-0.0668,0.0007,-7.9
0.725,-0.0015,0.0187,-0.0308,0.0082,-7.9
0.726,-0.0068,0.0187,0.0045,0.0082,-7.9
0.727,-0.0098,0.0,0.0352,0.0,-7.8
0.728,-0.0098,-0.0158,0.0427,-0.0046,-7.8
0.729,-0.006,-0.0173,0.0555,-0.0046,-7.8
0.73,-0.0083,-0.0105,0.048,-0.0053,-7.7
0.731,-0.0105,-0.0053,0.0442,-0.0068,-7.7
0.732,-0.0105,-0.003,0.0405,-0.0053,-7.7
0.733,-0.0143,0.0165,0.0247,0.0,-7.7
0.734,-0.012,0.0397,0.0232,0.0052,-7.7
0.735,-0.0083,0.0457,0.0165,0.0075,-7.7
0.736,-0.006,0.0255,0.0195,0.006,-7.6
0.737,-0.0053,-0.006,0.0187,-0.0008,-7.6
0.738,-0.0068,-0.021,0.0142,-0.0023,-7.6
0.739,-0.0098,-0.0158,0.0165,0.0015,-7.6
0.74,-0.0218,-0.0068,0.0105,0.003,-7.5
0.741,-0.0263,0.0052,0.0082,0.0045,-7.5
0.742,-0.0248,0.0232,0.0045,0.0052,-7.5
0.743,-0.0195,0.0285,0.0045,-0.0008,-7.5
0.744,-0.0068,-0.0038,0.0097,-0.0068,-7.4
0.745,-0.003,-0.0518,0.0112,-0.0068,-7.4
0.746,0.006,-0.0721,0.015,-0.0091,-7.4
0.747,0.0082,-0.0803,0.012,-0.0091,-7.4
0.748,0.0067,-0.0533,0.0082,-0.003,-7.3
0.749,0.009,-0.006,0.0052,-0.0015,-7.3
0.75,0.006,0.0052,0.009,-0.0083,-7.3
0.751,0.0052,0.0075,0.0127,-0.0105,-7.3
0.752,0.0,0.0142,0.0067,-0.003,-7.3
0.753,0.0007,0.0127,-0.003,-0.0008,-7.2
0.754,0.0007,0.0157,-0.0075,0.0045,-7.2
0.755,-0.0008,0.0165,-0.0083,0.0052,-7.2
0.756,0.0007,0.0172,-0.006,0.0045,-7.2
0.757,0.0007,0.0195,-0.0038,0.0045,-7.2
0.758,0.003,0.0142,0.0135,0.003,-7.2
0.759,0.003,0.009,0.051,0.0045,-7.1
0.76,0.0052,0.003,0.0637,0.0045,-7.1
0.761,0.0067,0.0045,0.0525,0.0052,-7.1
0.762,0.003,0.0052,0.0165,0.0,-7.1
0.763,0.0007,0.0045,-0.0405,-0.0083,-7.1
0.764,-0.0008,0.0022,-0.0653,-0.0083,-7.1
0.765,-0.0046,0.0015,-0.0743,-0.0068,-7.0
0.766,-0.0053,0.0045,-0.0668,-0.003,-7.0
0.767,-0.0053,0.0037,-0.0368,0.0,-7.0
0.768,-0.006,0.0045,-0.0128,0.0007,-7.0
0.769,-0.006,0.0015,-0.0091,0.003,-7.0
0.77,-0.0046,-0.0046,-0.0113,0.0045,-7.0
0.771,-0.0015,-0.0091,-0.0015,0.0052,-7.0
0.772,-0.0015,-0.015,0.0075,0.003,-6.9
0.773,-0.0015,-0.015,0.018,0.0067,-6.9
0.774,-0.0015,0.0022,0.0217,0.006,-6.9
0.775,0.0,0.027,0.0225,0.003,-6.9
0.776,0.0022,0.0352,0.0217,-0.0015,-6.9
0.777,0.003,0.027,0.018,-0.0053,-6.9
0.778,0.0,0.0157,0.018,-0.0015,-6.9
0.779,-0.0008,0.0082,0.0157,-0.0015,-6.8
0.78,0.003,-0.0023,0.0142,-0.0008,-6.8
0.781,0.0007,-0.015,0.0142,-0.003,-6.8
0.782,0.0007,-0.0323,0.0157,-0.0053,-6.8
0.783,0.0007,-0.0308,0.0187,-0.0015,-6.8
0.784,-0.0023,-0.0195,0.0187,-0.0046,-6.8
0.785,-0.0053,-0.0091,0.0112,-0.0008,-6.8
0.786,-0.0233,0.0075,-0.0008,0.0037,-6.8
0.787,-0.0473,0.0195,-0.012,0.0052,-6.8
0.788,-0.057,0.0315,-0.021,-0.0023,-6.8
0.789,-0.0465,0.0307,-0.0308,-0.006,-6.7
0.79,-0.0195,0.021,-0.0383,0.0007,-6.7
0.791,0.021,0.012,-0.0293,0.0015,-6.7
0.792,0.0615,0.0067,-0.0105,0.0052,-6.7
0.793,0.0855,0.0067,0.0022,0.0052,-6.7
0.794,0.0982,0.003,0.0052,0.0067,-6.7
0.795,0.0915,0.0015,0.0127,0.0037,-6.6
0.796,0.0577,-0.0038,0.0142,-0.0046,-6.6
0.797,0.0232,-0.006,0.0097,-0.0046,-6.6
0.798,-0.0015,-0.0083,0.0277,-0.0053,-6.6
0.799,-0.0256,-0.0068,0.0367,-0.003,-6.6
0.8,-0.0383,-0.006,0.0397,-0.0015,-6.6
0.801,-0.0428,-0.0075,0.033,-0.0008,-6.6
0.802,-0.0465,-0.003,0.009,0.0015,-6.5
0.803,-0.0436,-0.003,-0.0113,0.0007,-6.5
0.804,-0.0315,-0.003,-0.0308,-0.0008,-6.5
0.805,-0.0233,-0.003,-0.039,-0.0023,-6.5
0.806,-0.0181,-0.003,-0.042,-0.003,-6.5
0.807,-0.0105,-0.0053,-0.0173,0.0,-6.5
0.808,-0.006,-0.0038,0.0247,0.0015,-6.5
0.809,-0.003,0.0007,0.0337,0.0,-6.5
0.81,0.0022,0.0,0.0262,0.0015,-6.4
0.811,0.0007,-0.0008,0.015,0.0015,-6.4
0.812,-0.0008,-0.0015,-0.0015,-0.0008,-6.4
0.813,-0.0008,0.0,-0.0068,-0.0015,-6.4
0.814,0.0007,0.0022,-0.0195,-0.003,-6.4
0.815,0.0007,0.0022,-0.0256,-0.0023,-6.4
0.816,0.0007,0.0037,-0.0203,-0.0015,-6.4
0.817,0.0015,0.0015,-0.0218,0.0007,-6.4
0.818,-0.0015,0.003,-0.0128,0.0037,-6.4
0.819,-0.0015,0.006,-0.0068,0.0022,-6.3
0.82,-0.0008,0.0045,0.0022,0.0,-6.3
0.821,-0.0008,0.0007,0.003,0.0007,-6.3
0.822,0.0015,0.0,0.003,0.0015,-6.3
0.823,0.0045,-0.0023,0.0075,-0.0053,-6.3
0.824,0.0037,-0.0046,0.009,-0.0105,-6.3
0.825,-0.003,-0.0046,0.0165,-0.0038,-6.3
0.826,-0.0053,-0.0038,0.0165,-0.0015,-6.3
0.827,-0.0075,-0.0015,0.0142,-0.0008,-6.3
0.828,-0.0068,0.0007,0.0097,0.0037,-6.3
0.829,-0.0038,0.003,0.0052,0.0007,-6.3
0.83,-0.0046,0.003,0.003,0.003,-6.3
0.831,-0.003,0.0015,0.003,0.003,-6.3
0.832,-0.0015,0.0015,0.0007,0.0015,-6.3
0.833,-0.0008,0.0015,-0.0015,0.0007,-6.3
0.834,0.0,0.0007,-0.0046,-0.0008,-6.3
0.835,0.003,0.0,-0.0083,0.0007,-6.3
0.836,0.012,0.0015,-0.0091,-0.0015,-6.3
0.837,0.012,0.003,-0.0098,-0.0008,-6.3
0.838,0.009,0.0037,-0.006,0.0007,-6.3
0.839,0.0075,0.003,-0.0038,-0.0008,-6.3
0.84,0.003,0.0007,-0.003,0.0007,-6.3
0.841,0.0052,0.0007,0.0015,0.0015,-6.3
0.842,0.0045,0.003,0.003,0.0037,-6.3
0.843,-0.0008,0.0045,0.0045,0.006,-6.3
0.844,-0.003,0.003,0.0052,0.0052,-6.3
0.845,-0.0038,0.0007,0.012,-0.0015,-6.2
0.846,-0.0046,0.0007,0.012,-0.0075,-6.2
0.847,-0.0083,0.0,0.0082,-0.0046,-6.2
0.848,-0.0053,0.0,0.012,0.0022,-6.2
0.849,-0.0038,0.0022,0.0112,0.0045,-6.2
0.85,-0.0046,0.0015,0.0135,-0.0008,-6.2
0.851,0.003,0.0022,0.0082,-0.0068,-6.2
0.852,0.003,0.0007,0.0007,-0.0068,-6.2
0.853,0.0,-0.0008,-0.0008,-0.006,-6.2
0.854,0.003,-0.0008,-0.0038,-0.0008,-6.2
0.855,0.0007,0.0,-0.0015,0.0007,-6.2
0.856,-0.0015,0.0007,-0.003,0.0,-6.2
0.857,-0.0038,0.0007,-0.0046,0.0007,-6.2
0.858,-0.0068,0.0015,-0.0046,-0.0015,-6.2
0.859,-0.006,0.003,-0.0046,-0.0008,-6.2
0.86,-0.0091,0.0052,-0.003,-0.0023,-6.2
0.861,-0.0225,0.0067,-0.0015,-0.003,-6.2
0.862,-0.039,0.0052,-0.003,-0.0015,-6.2
0.863,-0.039,0.0022,-0.006,-0.0015,-6.2
0.864,-0.0263,0.0,-0.003,0.0007,-6.2
0.865,-0.0015,-0.0068,-0.0015,0.0,-6.2
0.866,0.0285,-0.0083,0.003,-0.0008,-6.2
0.867,0.042,-0.003,0.0022,0.0,-6.2
0.868,0.0412,-0.003,0.0007,0.0015,-6.2
0.869,0.0352,-0.0015,0.0015,0.003,-6.2
0.87,0.0202,-0.0008,-0.0008,0.0007,-6.2
0.871,0.0067,-0.003,0.0045,-0.0008,-6.2
0.872,-0.0008,-0.003,0.003,-0.0008,-6.2
0.873,-0.0008,0.0007,0.0015,-0.0015,-6.2
0.874,0.003,0.0052,-0.0008,0.0007,-6.2
0.875,0.0067,0.003,-0.0053,0.003,-6.2
0.876,0.006,0.0007,-0.0046,0.003,-6.2
0.877,0.0037,0.0015,-0.006,0.0007,-6.2
0.878,-0.0015,0.0007,-0.0083,-0.0015,-6.2
0.879,-0.0105,0.0,-0.0105,0.0,-6.2
0.88,-0.0098,-0.0008,-0.0068,0.0,-6.3
0.881,-0.0098,-0.0015,0.0,-0.0015,-6.3
0.882,-0.0143,-0.0015,0.0037,0.0,-6.3
0.883,-0.0143,0.0007,0.0067,-0.0008,-6.3
0.884,-0.0181,0.0007,0.0037,0.0007,-6.2
0.885,-0.0158,-0.0015,0.003,0.0015,-6.2
0.886,-0.0128,-0.0023,0.0067,0.0007,-6.2
0.887,-0.012,-0.0015,0.0052,0.0007,-6.2
0.888,-0.0068,0.0,0.0052,-0.0015,-6.2
0.889,-0.0053,0.0015,0.0052,0.0007,-6.2
0.89,-0.0046,0.0022,0.0045,0.003,-6.2
0.891,-0.003,0.0037,0.0015,0.0022,-6.2
0.892,-0.0015,0.0022,0.0037,0.0015,-6.2
0.893,0.0007,-0.0008,0.0127,0.0007,-6.2
0.894,0.003,0.0,0.0142,0.0007,-6.2
0.895,0.003,-0.0008,0.0157,-0.0015,-6.2
0.896,0.0015,-0.0015,0.0105,-0.0015,-6.2
0.897,0.0045,0.0007,0.0045,0.0,-6.1
0.898,0.0067,0.0007,-0.0008,-0.003,-6.1
0.899,0.0052,0.0,-0.0015,-0.0015,-6.1
0.9,0.0067,0.0015,0.003,-0.0008,-6.1
0.901,0.003,0.0015,0.0045,0.0015,-6.1
0.902,0.0,0.0022,0.0022,0.0015,-6.1
0.903,-0.0015,0.0007,-0.003,-0.0008,-6.1
0.904,-0.003,0.0,-0.003,0.003,-6.1
0.905,0.0007,-0.0008,-0.0008,0.0045,-6.1
0.906,0.003,-0.0008,0.0105,0.0067,-6.1
0.907,0.003,-0.0038,0.0187,-0.0015,-6.0
0.908,-0.003,-0.0068,0.0195,-0.0135,-6.0
0.909,-0.003,-0.0091,0.0187,-0.012,-6.0
0.91,-0.0046,-0.0083,0.0082,-0.0075,-6.0
0.911,-0.0053,-0.0046,0.0045,-0.0046,-6.0
0.912,-0.0015,-0.0015,0.0,-0.0008,-6.0
0.913,-0.003,-0.0015,-0.0015,0.0007,-6.0
0.914,-0.0008,-0.0008,0.003,0.0007,-5.9
0.915,0.0007,-0.0015,0.0,0.0,-5.9
0.916,-0.0008,-0.003,0.0052,0.0007,-5.9
0.917,0.0022,-0.0015,0.003,0.0015,-5.9
0.918,0.003,-0.003,0.0022,0.0015,-5.9
0.919,0.0037,0.0015,0.0045,0.0022,-5.9
0.92,0.0015,0.018,0.0007,0.0015,-5.9
0.921,-0.0008,0.0292,-0.0008,0.0045,-5.9
0.922,0.0,0.0202,-0.0015,0.0045,-5.9
0.923,-0.0008,0.003,-0.003,0.0037,-5.9
0.924,0.0015,-0.0143,-0.0046,-0.0008,-5.9
0.925,0.0007,-0.0203,-0.0008,-0.006,-5.8
0.926,0.0022,-0.0195,0.0,-0.0068,-5.8
0.927,0.0,-0.027,0.0,-0.0053,-5.8
0.928,-0.003,-0.0225,0.0015,-0.0015,-5.8
0.929,-0.0023,-0.003,0.0007,0.0015,-5.8
0.93,-0.0046,-0.0008,-0.0008,0.0015,-5.7
0.931,-0.0046,-0.003,0.0007,-0.0008,-5.7
0.932,-0.0038,-0.012,0.0015,-0.0038,-5.7
0.933,-0.0053,-0.0278,0.0007,-0.0046,-5.7
0.934,-0.0083,-0.0256,-0.0008,-0.0023,-5.7
0.935,-0.006,-0.0128,-0.0023,-0.0015,-5.7
0.936,-0.0015,-0.0053,-0.0008,0.0037,-5.6
0.937,0.0,0.0165,-0.0008,0.0052,-5.6
0.938,0.0045,0.0547,0.0,0.0015,-5.6
0.939,0.0007,0.0885,0.0015,-0.0008,-5.6
0.94,-0.0015,0.1065,0.0015,-0.0023,-5.6
0.941,-0.0008,0.09,-0.0008,-0.0008,-5.5
0.942,-0.0038,0.0465,-0.0008,-0.0015,-5.5
0.943,0.0,0.0105,-0.0038,-0.003,-5.5
0.944,0.0015,-0.0436,-0.0053,-0.0053,-5.5
0.945,0.0,-0.0893,-0.0053,-0.0046,-5.4
0.946,0.0007,-0.0608,-0.0068,0.0,-5.4
0.947,-0.0015,-0.0405,-0.0083,0.0022,-5.4
0.948,-0.0015,-0.0413,-0.0046,0.0045,-5.4
0.949,-0.0046,-0.039,-0.0023,0.0045,-5.4
0.95,-0.0053,-0.0706,0.0015,0.0082,-5.3
0.951,-0.003,-0.0615,0.0067,0.0142,-5.3
0.952,-0.0046,-0.0323,0.0015,0.0165,-5.3
0.953,-0.0015,-0.0105,-0.0023,0.0142,-5.3
0.954,0.0,0.033,-0.003,0.009,-5.2
0.955,0.0007,0.0652,0.0007,0.0045,-5.2
0.956,0.0052,0.0712,0.0007,-0.0046,-5.2
0.957,0.0075,0.042,0.003,-0.0188,-5.2
0.958,0.003,0.0097,0.0045,-0.0233,-5.1
0.959,-0.0008,-0.03,-0.0015,-0.0158,-5.1
0.96,-0.0023,-0.0563,0.0015,-0.0105,-5.1
0.961,-0.0038,-0.0338,-0.0023,-0.0075,-5.0
0.962,-0.0046,-0.024,0.0007,-0.0105,-5.0
0.963,-0.0015,-0.012,0.0037,-0.0128,-5.0
0.964,-0.0015,0.0427,0.003,-0.003,-5.0
0.965,0.0,0.1185,0.006,0.0037,-4.9
0.966,-0.0015,0.135,0.0045,0.0045,-4.9
0.967,-0.0023,0.0772,0.0097,0.003,-4.8
0.968,0.0,0.012,0.009,-0.0008,-4.8
0.969,-0.0015,-0.0863,0.006,-0.0075,-4.8
0.97,-0.0046,-0.1553,0.006,-0.0128,-4.7
0.971,-0.0068,-0.1185,0.0015,-0.0128,-4.7
0.972,-0.0105,-0.0413,0.0022,-0.0098,-4.6
0.973,-0.0098,-0.0143,0.0045,-0.003,-4.6
0.974,-0.003,0.0067,0.0045,0.0037,-4.6
0.975,0.0015,0.0202,0.003,0.0105,-4.5
0.976,0.0015,-0.012,0.0045,0.012,-4.5
0.977,0.0045,-0.0098,0.0082,0.0112,-4.5
0.978,0.003,-0.0143,0.009,0.006,-4.5
0.979,0.0015,-0.0218,0.0112,-0.003,-4.4
0.98,0.0015,-0.0105,0.012,-0.0015,-4.4
0.981,0.003,-0.0075,0.0075,0.0022,-4.3
0.982,-0.0023,0.027,0.003,0.0105,-4.3
0.983,-0.0046,0.0555,0.0045,0.015,-4.2
0.984,-0.003,0.0532,0.0022,0.018,-4.2
0.985,-0.003,0.039,0.0015,0.0202,-4.2
0.986,0.0007,0.0165,0.0037,0.0195,-4.1
0.987,0.0022,0.0037,0.003,0.012,-4.1
0.988,0.0052,-0.0105,0.0067,0.0052,-4.1
0.989,0.0052,-0.006,0.0052,-0.0008,-4.0
0.99,0.0,0.0232,0.0045,-0.006,-4.0
0.991,-0.0008,0.0172,0.003,-0.012,-4.0
0.992,-0.0046,0.0142,0.0007,-0.024,-3.9
0.993,-0.0053,0.018,0.0,-0.0233,-3.9
0.994,-0.0038,-0.0068,-0.0053,-0.0181,-3.8
0.995,-0.0046,-0.0135,-0.0046,-0.0091,-3.8
0.996,-0.0008,-0.0105,-0.0053,0.0,-3.7
0.997,-0.003,-0.0038,-0.0023,-0.003,-3.7
0.998,0.0,0.0105,-0.0023,-0.0015,-3.7
0.999,0.003,0.0165,-0.0053,-0.003,-3.6
1.0,-0.0008,0.015,-0.0015,-0.0008,-3.6
1.001,0.0007,0.009,-0.0008,0.0015,-3.6
1.002,0.0015,0.0,0.0052,0.0067,-3.5
1.003,0.003,-0.012,0.0067,0.0135,-3.5
1.004,0.0007,-0.0023,0.0067,0.0127,-3.5
1.005,-0.0015,0.0142,0.0052,0.0187,-3.4
1.006,0.0015,0.0352,0.0015,0.0157,-3.4
1.007,0.0007,0.0487,-0.0008,0.009,-3.3
1.008,0.0007,0.0315,-0.0023,0.0015,-3.3
1.009,0.0015,-0.0015,-0.003,-0.0068,-3.2
1.01,-0.0023,-0.0353,-0.0023,-0.0083,-3.2
1.011,-0.0015,-0.0668,-0.0015,-0.0068,-3.2
1.012,0.0015,-0.0818,-0.0015,-0.0046,-3.2
1.013,0.0007,-0.0615,-0.0015,-0.0068,-3.1
1.014,0.0015,-0.0495,-0.0015,-0.0068,-3.1
1.015,0.003,-0.0383,0.0007,-0.0038,-3.0
1.016,0.0,-0.0046,0.0022,-0.0038,-3.0
1.017,0.0007,0.0217,0.0045,-0.006,-3.0
1.018,0.0045,0.048,0.003,-0.0083,-2.9
1.019,0.0022,0.0697,-0.0023,-0.0105,-2.9
1.02,-0.0023,0.0517,-0.003,-0.0128,-2.8
1.021,-0.0015,0.0142,-0.0053,-0.0098,-2.8
1.022,-0.0015,-0.0323,-0.003,-0.0068,-2.8
1.023,-0.0023,-0.0578,-0.0008,-0.0015,-2.7
1.024,-0.0023,-0.0256,-0.0015,0.003,-2.7
1.025,-0.003,-0.0091,0.0037,0.0022,-2.7
1.026,-0.0015,-0.0158,0.003,0.0082,-2.7
1.027,-0.0015,-0.0143,0.0067,0.009,-2.7
1.028,0.0045,-0.0068,0.0045,0.0052,-2.6
1.029,0.0052,0.0172,0.0037,0.0007,-2.6
1.03,0.0,0.0427,0.0007,-0.0023,-2.6
1.031,-0.0008,0.0712,-0.0038,0.0,-2.5
1.032,-0.0053,0.06,-0.0008,0.0052,-2.5
1.033,-0.0038,0.0322,0.0007,0.0112,-2.5
1.034,0.0007,0.0225,0.0075,0.0067,-2.5
1.035,-0.0008,0.0007,0.006,-0.0068,-2.4
1.036,-0.0008,-0.024,0.003,-0.0098,-2.4
1.037,-0.0015,-0.0405,0.0,-0.0068,-2.4
1.038,-0.003,-0.0405,-0.0038,-0.0113,-2.3
1.039,-0.003,-0.0375,-0.0015,-0.012,-2.3
1.04,-0.0015,-0.0195,-0.0046,-0.0046,-2.3
1.041,-0.003,-0.0181,-0.003,-0.003,-2.3
1.042,-0.0008,-0.0525,-0.0008,-0.003,-2.3
1.043,0.0007,-0.0563,0.0,0.0,-2.3
1.044,-0.0053,-0.0195,0.0015,0.0015,-2.3
1.045,-0.0023,0.018,0.0015,0.0022,-2.2
1.046,-0.0015,0.0165,0.0022,0.0045,-2.2
1.047,-0.0023,0.0157,0.0022,0.0045,-2.2
1.048,0.0052,-0.0023,0.0022,0.0052,-2.2
1.049,0.003,-0.0315,0.0022,0.0015,-2.2
1.05,0.003,-0.0195,0.0022,-0.0015,-2.1
1.051,0.0045,-0.0046,0.0022,0.0015,-2.1
1.052,0.003,0.0225,0.0015,0.0,-2.1
1.053,0.0015,0.054,0.0022,0.0007,-2.1
1.054,-0.0015,0.0645,0.0015,0.0007,-2.1
1.055,-0.003,0.0435,0.0007,0.0015,-2.1
1.056,-0.0023,0.003,0.0022,0.0015,-2.0
1.057,-0.0015,-0.0083,0.0037,-0.0008,-2.0
1.058,-0.0046,0.0142,0.0052,0.0022,-2.0
1.059,-0.0068,0.0225,0.0045,-0.0008,-2.0
1.06,-0.003,0.0075,0.0037,-0.0008,-2.0
1.061,-0.003,0.0015,0.0037,-0.0015,-2.0
1.062,-0.0008,-0.0135,0.0007,-0.0015,-2.0
1.063,0.0045,-0.0188,0.0022,0.0007,-2.0
1.064,0.003,-0.0165,0.003,-0.0015,-2.0
1.065,0.0015,-0.0075,0.0037,0.003,-2.0
1.066,0.0007,0.021,0.0067,0.0067,-2.0
1.067,0.0015,0.0322,0.0097,0.0105,-2.0
1.068,0.0022,0.0525,0.0127,0.0127,-2.0
1.069,-0.0008,0.0457,0.0142,0.0052,-2.0
1.07,-0.003,-0.0068,0.0157,0.0082,-1.9
1.071,-0.0015,-0.0533,0.0105,0.0082,-1.9
1.072,-0.0015,-0.0713,0.0067,0.0082,-1.9
1.073,-0.0008,-0.0465,0.0052,0.0105,-1.9
1.074,0.0007,-0.033,0.0022,-0.0008,-1.9
1.075,-0.0008,-0.0346,0.003,-0.0091,-1.9
1.076,0.0007,-0.0053,0.0,-0.0143,-1.9
1.077,0.0015,0.024,0.0007,-0.0105,-1.9
1.078,0.0,0.027,0.0,-0.0083,-1.9
1.079,-0.003,0.0217,-0.003,-0.0091,-1.9
1.08,-0.0023,0.0165,-0.003,-0.0083,-1.9
1.081,-0.006,0.0075,-0.003,-0.0105,-1.9
1.082,-0.0083,0.0105,-0.003,-0.0068,-1.9
1.083,-0.0038,0.0075,-0.0038,-0.006,-1.9
1.084,-0.0015,0.0007,-0.0008,-0.003,-1.9
1.085,0.0,0.0052,0.0,-0.0015,-1.9
1.086,0.0015,0.012,-0.0008,0.0,-1.9
1.087,0.003,0.0142,0.0022,0.0022,-1.9
1.088,0.0052,0.0015,0.003,-0.0008,-1.9
1.089,0.0067,-0.0098,0.006,-0.0053,-1.9
1.09,0.006,-0.0323,0.0045,-0.0075,-1.9
1.091,0.0037,-0.0525,0.006,-0.0046,-1.9
1.092,-0.0015,-0.0346,0.0045,-0.0008,-1.9
1.093,-0.0015,0.0082,0.0015,0.0022,-1.9
1.094,-0.0015,0.0367,0.006,-0.003,-1.9
1.095,-0.003,0.039,0.0045,-0.0046,-1.9
1.096,-0.003,0.0292,0.0052,-0.0015,-1.9
1.097,-0.0053,0.0165,0.003,0.0007,-1.9
1.098,-0.0023,0.0067,0.0007,0.0052,-1.9
1.099,-0.0015,-0.006,0.006,0.0105,-1.9
1.1,-0.0008,-0.012,0.0067,0.0112,-2.0
1.101,0.003,-0.0128,0.0082,0.0075,-2.0
1.102,0.0007,-0.012,0.0045,0.0045,-2.0
1.103,-0.0023,-0.0053,0.0037,0.0007,-2.0
1.104,-0.003,0.003,0.0045,-0.0046,-2.0
1.105,-0.0023,0.0097,0.003,-0.0105,-2.0
1.106,-0.0023,0.0067,0.0045,-0.0128,-2.0
1.107,-0.0015,0.0,0.003,-0.0105,-2.0
1.108,0.0007,-0.0015,0.0037,-0.0023,-2.0
1.109,0.003,0.0007,0.0007,0.003,-2.0
1.11,0.0045,-0.0015,-0.003,0.003,-2.1
1.111,0.003,0.0,-0.0038,0.0007,-2.1
1.112,0.0015,0.0,-0.0068,-0.003,-2.1
1.113,-0.0008,-0.003,-0.0046,0.0,-2.1
1.114,-0.0015,-0.0091,-0.0046,0.0022,-2.1
1.115,-0.003,-0.0128,-0.0038,0.0022,-2.1
1.116,-0.0038,-0.0091,-0.0008,0.0015,-2.1
1.117,-0.0046,-0.0105,-0.0015,0.0037,-2.1
1.118,-0.0068,-0.012,0.0007,0.006,-2.1
1.119,-0.0053,-0.0083,0.0007,0.0,-2.2
1.12,-0.003,0.0,0.0007,-0.0053,-2.2
1.121,-0.003,0.0045,0.0007,-0.0053,-2.2
1.122,-0.0046,0.0022,-0.0015,-0.0015,-2.2
1.123,-0.0053,0.0007,0.0007,0.0,-2.3
1.124,-0.0068,-0.0023,-0.0008,0.003,-2.3
1.125,-0.0068,0.0015,-0.0015,0.0022,-2.3
1.126,-0.0053,0.0052,-0.0008,0.0007,-2.3
1.127,-0.006,-0.0015,-0.003,0.0015,-2.3
1.128,-0.0023,-0.0173,0.0,0.0,-2.3
1.129,-0.0015,-0.021,0.003,-0.003,-2.4
1.13,-0.0008,-0.0075,0.0037,-0.006,-2.4
1.131,0.0,0.0007,0.0052,-0.0046,-2.4
1.132,-0.0015,0.0037,0.0,-0.0038,-2.5
1.133,0.0007,0.006,-0.0023,-0.003,-2.5
1.134,0.0022,0.0052,-0.0008,-0.0008,-2.5
1.135,0.0015,0.0007,-0.003,0.0007,-2.5
1.136,0.0007,-0.0068,0.0,0.003,-2.6
1.137,0.0015,-0.0053,-0.0015,0.003,-2.6
1.138,-0.0015,0.0045,-0.0008,0.0075,-2.6
1.139,-0.0015,0.0202,0.0015,0.006,-2.6
1.14,-0.003,0.033,-0.0015,0.0037,-2.7
1.141,-0.0046,0.0292,0.0022,0.0037,-2.7
1.142,-0.0023,0.009,0.0015,0.0037,-2.7
1.143,-0.0015,-0.0181,0.003,0.0045,-2.7
1.144,0.0007,-0.0315,0.0075,0.0007,-2.8
1.145,0.0045,-0.033,0.0015,0.0,-2.8
1.146,0.003,-0.0413,0.0,0.0007,-2.8
1.147,0.0015,-0.042,-0.003,0.0067,-2.9
1.148,-0.0015,-0.027,0.0015,0.0127,-2.9
1.149,-0.003,-0.0181,0.0037,0.0105,-2.9
1.15,-0.003,-0.0083,-0.0008,0.0052,-3.0
1.151,-0.0046,0.0045,0.0022,0.0007,-3.0
1.152,-0.0008,0.0022,-0.0015,0.0,-3.0
1.153,-0.0008,0.0135,-0.0046,-0.003,-3.1
1.154,-0.0015,0.0247,-0.0053,-0.0038,-3.1
1.155,-0.0008,0.024,-0.0046,0.0,-3.2
1.156,-0.0015,0.0292,-0.003,0.0015,-3.2
1.157,0.0,0.0442,-0.0068,0.0007,-3.2
1.158,0.0007,0.042,-0.0046,0.0007,-3.2
1.159,-0.0008,0.0037,-0.0053,0.003,-3.2
1.16,-0.0008,-0.0233,-0.003,0.0067,-3.3
1.161,-0.0023,-0.0263,0.0007,0.0075,-3.3
1.162,-0.0046,-0.0458,0.0015,0.0045,-3.4
1.163,-0.0038,-0.0608,0.0037,0.0,-3.4
1.164,-0.0023,-0.0346,0.003,-0.0098,-3.5
1.165,-0.0023,-0.0091,0.0015,-0.0165,-3.5
1.166,-0.0038,-0.0091,0.0,-0.0181,-3.6
1.167,-0.0008,-0.0353,-0.0008,-0.0165,-3.6
1.168,-0.0008,-0.0533,0.0007,-0.012,-3.6
1.169,-0.0008,-0.024,0.0015,-0.0068,-3.7
1.17,0.0007,0.0,0.003,-0.0046,-3.7
1.171,-0.0015,0.0067,0.0052,-0.0038,-3.7
1.172,-0.0015,0.0127,0.0052,-0.0023,-3.8
1.173,-0.0023,0.0142,0.006,-0.0008,-3.8
1.174,-0.0015,0.0135,0.0022,-0.0015,-3.9
1.175,-0.0015,0.0105,-0.0015,-0.0008,-3.9
1.176,-0.0008,0.0075,-0.0015,-0.0015,-4.0
1.177,0.0,0.0075,-0.003,-0.0015,-4.0
1.178,-0.003,0.0075,-0.0015,-0.0023,-4.1
1.179,-0.0015,0.0075,0.0,-0.003,-4.1
1.18,-0.0015,0.0112,0.003,-0.0046,-4.2
1.181,-0.0038,0.0292,0.0045,-0.003,-4.2
1.182,-0.0023,0.0382,0.0015,-0.0008,-4.2
1.183,-0.003,0.0165,0.0,0.0007,-4.3
1.184,0.0007,-0.0038,-0.0046,0.0022,-4.3
1.185,0.0015,-0.021,-0.0046,0.0022,-4.4
1.186,-0.0008,-0.0375,-0.003,0.0015,-4.5
1.187,0.003,-0.0361,-0.0038,0.0015,-4.5
1.188,-0.0008,-0.024,0.0015,0.0015,-4.5
1.189,0.0015,0.0097,0.003,-0.0015,-4.6
1.19,0.0022,0.0412,0.006,-0.0053,-4.6
1.191,-0.0015,0.0397,0.006,0.0,-4.7
1.192,0.0022,0.039,0.0052,0.006,-4.7
1.193,0.0007,0.0292,0.0082,0.009,-4.8
1.194,-0.0008,0.0015,0.0052,0.0067,-4.8
1.195,0.0,-0.0195,0.0075,0.0052,-4.9
1.196,-0.0015,-0.0128,0.0082,0.0052,-5.0
1.197,-0.0015,0.0105,0.0045,0.0022,-5.0
1.198,-0.0038,0.0202,0.0037,-0.0015,-5.0
1.199,-0.0046,0.0315,0.0015,-0.0046,-5.1
1.2,-0.0046,0.0382,0.0022,0.0022,-5.2
1.201,-0.0046,0.0352,0.0037,0.0007,-5.2
1.202,-0.003,0.0352,0.003,0.0007,-5.3
1.203,-0.0046,0.0187,0.003,0.0052,-5.3
1.204,-0.0038,-0.0091,0.003,0.0015,-5.4
1.205,-0.0053,-0.0315,0.0045,0.0022,-5.4
1.206,-0.0015,-0.0135,0.0097,0.0,-5.4
1.207,0.0,0.0067,0.0135,0.0015,-5.5
1.208,0.0007,0.006,0.0097,0.0007,-5.6
1.209,0.0037,0.015,0.0067,-0.0015,-5.6
1.21,0.003,0.0127,0.0052,-0.0008,-5.7
1.211,0.0037,0.015,0.0067,-0.0023,-5.8
1.212,-0.0008,0.018,0.0075,-0.0008,-5.8
1.213,0.0022,0.0142,0.009,-0.0038,-5.9
1.214,0.003,0.0105,0.009,-0.0053,-5.9
1.215,-0.0008,0.003,0.006,-0.0046,-6.0
1.216,0.0045,0.0045,0.0067,-0.003,-6.0
1.217,-0.0015,0.0052,0.0067,0.0007,-6.1
1.218,-0.0053,0.0105,0.0082,0.0007,-6.1
1.219,-0.003,0.0135,0.0045,0.0015,-6.2
1.22,-0.0068,0.0165,0.0052,0.0007,-6.3
1.221,-0.003,0.018,0.0022,-0.0023,-6.3
1.222,-0.0015,0.012,0.0007,-0.0015,-6.4
1.223,-0.0015,0.006,0.003,0.0,-6.4
1.224,0.0022,0.0007,0.0045,0.0,-6.5
1.225,0.0007,-0.0015,0.0067,-0.0015,-6.6
1.226,0.0007,-0.0053,0.0037,-0.0023,-6.7
1.227,-0.0008,-0.006,0.0037,-0.0015,-6.7
1.228,-0.0023,-0.0068,0.0022,-0.0008,-6.8
1.229,-0.003,-0.0128,0.0015,0.0015,-6.8
1.23,-0.0046,-0.0181,0.0022,0.0015,-6.9
1.231,-0.0023,-0.0165,-0.0008,0.003,-7.0
1.232,-0.0023,-0.0158,0.003,0.0052,-7.0
1.233,0.0015,-0.0143,0.0022,0.0045,-7.1
1.234,0.0015,-0.0068,0.0037,0.0067,-7.2
1.235,-0.0015,0.0082,0.0045,0.0007,-7.2
1.236,-0.0008,0.015,0.003,-0.0008,-7.3
1.237,-0.0046,0.006,0.0052,0.0,-7.4
1.238,-0.003,0.0067,0.0045,-0.0015,-7.4
1.239,-0.0008,0.0082,0.0037,-0.0015,-7.5
1.24,-0.0023,-0.0038,0.0015,-0.0075,-7.6
1.241,-0.0023,-0.0248,-0.0008,-0.006,-7.7
1.242,-0.0008,-0.0248,-0.0015,-0.003,-7.7
1.243,-0.0015,-0.0173,-0.003,-0.0038,-7.8
1.244,-0.0015,-0.021,-0.0008,-0.0038,-7.9
1.245,0.0015,-0.0165,-0.0015,-0.006,-8.0
1.246,-0.0023,-0.0195,0.0015,-0.0053,-8.1
1.247,-0.0015,-0.0195,0.0015,-0.0053,-8.1
1.248,0.0015,-0.0195,-0.0008,-0.0038,-8.2
1.249,0.0007,-0.024,0.0015,-0.0015,-8.3
1.25,0.0015,-0.024,-0.0015,-0.0008,-8.4
1.251,0.0007,-0.0181,0.0015,0.0,-8.5
1.252,0.0015,-0.0113,0.0015,0.0,-8.6
1.253,0.0037,-0.006,-0.0008,0.0007,-8.7
1.254,0.0015,-0.0023,0.0,-0.0008,-8.8
1.255,-0.0015,-0.003,-0.0038,0.0,-8.9
1.256,-0.003,-0.0113,-0.0015,-0.0008,-8.9
1.257,0.0007,-0.0188,-0.0023,0.0,-9.0
1.258,0.0015,-0.0181,0.0,0.0045,-9.1
1.259,0.003,-0.0195,-0.0008,0.0045,-9.2
1.26,0.0052,-0.0046,-0.0015,0.0015,-9.3
1.261,0.0015,0.0217,-0.0023,-0.0046,-9.4
1.262,0.0007,0.0315,-0.0068,-0.0068,-9.5
1.263,-0.0015,0.0345,-0.006,-0.0038,-9.6
1.264,-0.006,0.0315,-0.0098,-0.0015,-9.7
1.265,-0.0053,0.0337,-0.0091,0.0022,-9.8
1.266,-0.0053,0.0367,-0.0068,0.0052,-9.9
1.267,-0.0046,0.033,-0.0068,0.0052,-10.0
1.268,-0.0023,0.0262,-0.003,-0.0015,-10.1
1.269,-0.0015,0.0112,-0.0023,-0.0046,-10.3
1.27,-0.0015,0.0045,0.0007,0.0015,-10.4
1.271,-0.0008,-0.0015,-0.0008,0.0007,-10.4
1.272,0.0,-0.0195,-0.0008,-0.003,-10.6
1.273,-0.0008,-0.0158,-0.0023,-0.0091,-10.7
1.274,-0.0015,-0.0046,-0.006,-0.0135,-10.8
1.275,-0.003,-0.0218,-0.0046,-0.0075,-10.9
1.276,-0.003,-0.033,-0.0046,0.0015,-11.0
1.277,-0.0008,-0.0256,-0.0015,0.0,-11.1
1.278,-0.0008,-0.0278,0.0,-0.0015,-11.2
1.279,0.0015,-0.027,-0.0008,0.0045,-11.3
1.28,0.0,-0.0188,0.0037,0.0045,-11.5
1.281,0.0,-0.024,0.0015,0.0022,-11.6
1.282,0.0007,-0.039,0.0015,0.006,-11.7
1.283,0.0015,-0.0105,0.003,0.0082,-11.8
1.284,0.0037,0.0345,0.003,0.006,-12.0
1.285,-0.0023,0.0285,-0.0008,-0.0068,-12.1
1.286,-0.003,0.0172,-0.006,-0.0158,-12.2
1.287,-0.0015,0.012,-0.006,-0.0105,-12.4
1.288,-0.0053,0.009,-0.0053,-0.0083,-12.5
1.289,-0.003,0.0195,-0.0053,-0.0015,-12.6
1.29,0.0,0.0345,-0.0046,0.0075,-12.8
1.291,0.0022,0.0382,-0.0015,0.0075,-12.9
1.292,0.0015,0.0075,0.0007,0.0015,-13.0
1.293,-0.0008,-0.0368,0.0007,0.0037,-13.1
1.294,0.0007,-0.0578,0.0022,0.0075,-13.3
1.295,0.0007,-0.0091,0.003,0.0067,-13.4
1.296,-0.0008,0.0472,0.006,0.0045,-13.5
1.297,-0.0046,0.0405,0.0082,0.0067,-13.7
1.298,-0.0053,0.048,0.009,0.0082,-13.8
1.299,-0.003,0.0532,0.012,0.003,-14.0
1.3,-0.0038,0.0067,0.0105,0.0007,-14.1
1.301,-0.003,-0.0383,0.009,0.0007,-14.2
1.302,-0.003,-0.075,0.0097,0.0007,-14.4
1.303,-0.006,-0.0758,0.0105,-0.003,-14.5
1.304,-0.0053,-0.0443,0.009,0.0015,-14.7
1.305,-0.0046,-0.0315,0.0052,0.003,-14.9
1.306,-0.0046,-0.015,0.0045,-0.003,-15.0
1.307,-0.0008,0.0045,0.0015,-0.0008,-15.2
1.308,-0.0015,-0.0015,-0.0008,0.0015,-15.3
1.309,-0.0008,0.0067,0.0015,0.0037,-15.5
1.31,0.0022,0.0217,0.0022,0.003,-15.6
1.311,0.0015,0.024,0.0007,0.003,-15.8
1.312,0.0052,0.0277,0.0007,0.0007,-15.9
1.313,0.006,0.0195,0.0007,-0.0008,-16.1
1.314,0.0007,0.021,0.0015,0.0022,-16.2
1.315,-0.0008,0.021,0.003,-0.0023,-16.4
1.316,-0.003,0.012,0.003,-0.0053,-16.5
1.317,-0.003,0.003,0.003,-0.0053,-16.7
1.318,-0.0008,-0.0008,0.0075,-0.0008,-16.8
1.319,0.0007,0.0067,0.0097,0.0067,-17.0
1.32,0.0015,0.0225,0.0105,0.0097,-17.2
1.321,0.003,0.0352,0.0082,0.0127,-17.3
1.322,0.003,0.0307,0.0082,0.0112,-17.5
1.323,0.003,0.039,0.0082,0.0127,-17.6
1.324,0.0045,0.0345,0.0052,0.0105,-17.8
1.325,0.0015,0.009,0.0112,0.0067,-18.0
1.326,0.0022,-0.021,0.0112,-0.0015,-18.1
1.327,0.0,-0.0706,0.0127,-0.0105,-18.3
1.328,-0.0008,-0.0765,0.012,-0.006,-18.5
1.329,-0.0008,-0.0436,0.0105,-0.0008,-18.7
1.33,-0.003,-0.0203,0.0112,0.0045,-18.9
1.331,-0.0046,-0.0008,0.009,0.0052,-19.0
1.332,-0.0053,0.0112,0.0127,0.0045,-19.2
1.333,-0.0046,0.0045,0.0082,0.0015,-19.4
1.334,-0.0046,0.0,0.0052,0.0022,-19.5
1.335,-0.0008,0.0007,0.0045,0.0052,-19.7
1.336,0.0015,0.0007,0.0,-0.0008,-19.8
1.337,-0.0008,0.0157,0.0045,-0.003,-20.0
1.338,-0.0008,0.0367,-0.0008,-0.003,-20.2
1.339,-0.0046,0.0435,0.0022,-0.0015,-20.3
1.34,-0.0023,0.024,0.0007,-0.0046,-20.6
1.341,-0.0008,-0.0008,0.0,-0.0046,-20.7
1.342,-0.0008,-0.0046,0.006,-0.0015,-20.9
1.343,-0.0015,-0.0046,0.0052,-0.0053,-21.1
1.344,-0.0023,-0.0225,0.0082,-0.006,-21.3
1.345,-0.0015,-0.0361,0.0105,-0.0053,-21.5
1.346,-0.003,-0.0308,0.012,-0.0053,-21.6
1.347,-0.0038,-0.0195,0.0157,-0.0091,-21.9
1.348,-0.0053,-0.0105,0.0165,-0.0158,-22.1
1.349,-0.0046,-0.0046,0.0165,-0.0098,-22.2
1.35,-0.0053,0.018,0.0105,-0.003,-22.5
1.351,-0.0068,0.0337,0.0097,0.0015,-22.6
1.352,-0.0053,0.027,0.0082,0.0037,-22.8
1.353,-0.0046,0.0165,0.009,-0.003,-23.0
1.354,-0.0046,-0.0083,0.0082,-0.003,-23.2
1.355,-0.0053,-0.033,0.0052,-0.003,-23.4
1.356,-0.0053,-0.0458,0.0067,-0.0046,-23.6
1.357,-0.0053,-0.0563,0.0075,-0.003,-23.8
1.358,-0.003,-0.042,0.0082,-0.0008,-24.0
1.359,-0.0023,-0.0165,0.0082,-0.0008,-24.2
1.36,-0.0015,-0.0053,0.0112,-0.003,-24.4
1.361,0.0007,0.003,0.015,-0.0023,-24.6
1.362,-0.0008,0.0082,0.018,-0.0046,-24.8
1.363,0.0007,0.0082,0.0157,-0.0091,-25.0
1.364,0.0015,0.006,0.0142,-0.0098,-25.2
1.365,0.003,0.003,0.018,-0.0068,-25.4
1.366,0.0052,0.0045,0.0142,-0.0038,-25.6
1.367,0.006,0.009,0.0142,-0.0015,-25.8
1.368,0.006,0.015,0.0082,-0.003,-26.0
1.369,0.0022,0.0105,0.0052,-0.0046,-26.2
1.37,0.0045,0.0052,0.0052,-0.0023,-26.4
1.371,0.006,0.0037,0.0007,-0.0008,-26.6
1.372,0.0052,-0.0068,-0.0046,-0.0008,-26.8
1.373,0.0052,-0.0128,-0.0083,0.0015,-27.0
1.374,0.0015,-0.024,-0.0075,0.003,-27.2
1.375,0.0045,-0.0353,-0.0091,0.0045,-27.4
1.376,0.0067,-0.0256,-0.0068,0.0045,-27.6
1.377,0.003,-0.0098,-0.0105,0.0045,-27.8
1.378,0.003,-0.0046,-0.0143,0.006,-28.0
1.379,-0.0008,0.0052,-0.0158,0.0052,-28.2
1.38,-0.0008,0.0135,-0.0203,0.0,-28.5
1.381,0.0015,0.0105,-0.0165,-0.0008,-28.6
1.382,0.0045,0.006,-0.0195,-0.0008,-28.8
1.383,0.0052,0.0022,-0.0203,-0.0015,-29.0
1.384,0.0015,0.0007,-0.0188,-0.0023,-29.3
1.385,0.0015,0.0007,-0.0233,-0.0046,-29.4
1.386,-0.0008,0.0015,-0.024,-0.0053,-29.6
1.387,0.0007,0.0007,-0.0293,-0.006,-29.8
1.388,0.0,0.0007,-0.0293,-0.0083,-30.0
1.389,-0.0038,0.0022,-0.0315,-0.006,-30.2
1.39,0.0015,0.0045,-0.0346,-0.0083,-30.4
1.391,0.0,0.0037,-0.0315,-0.0068,-30.6
1.392,-0.0015,0.0037,-0.0315,-0.0053,-30.8
1.393,-0.0008,0.003,-0.027,-0.0053,-31.0
1.394,-0.0038,0.003,-0.027,-0.0046,-31.2
1.395,-0.0015,-0.0008,-0.0233,-0.003,-31.4
1.396,-0.0015,-0.003,-0.0188,-0.003,-31.6
1.397,-0.0015,-0.0008,-0.0158,-0.0015,-31.8
1.398,0.0007,0.0007,-0.0113,0.0015,-32.0
1.399,0.0,0.0045,-0.012,0.003,-32.2
1.4,-0.0015,0.0112,-0.0068,0.0,-32.4
1.401,-0.003,0.012,-0.0046,0.0007,-32.6
1.402,-0.0008,0.0082,-0.0015,0.0045,-32.8
1.403,0.0007,0.0075,0.003,0.0067,-33.0
1.404,-0.0015,0.0045,-0.0023,0.0082,-33.2
1.405,0.0007,0.0045,0.003,0.0052,-33.3
1.406,0.0,0.0052,0.0022,0.0045,-33.5
1.407,-0.0015,0.003,0.0067,0.0037,-33.7
1.408,-0.0015,0.0,0.0135,0.003,-33.9
1.409,-0.0008,-0.0023,0.0127,0.003,-34.1
1.41,-0.003,-0.0008,0.0202,0.0015,-34.3
1.411,-0.0015,-0.0008,0.018,0.0067,-34.5
1.412,-0.0015,0.0007,0.021,0.009,-34.7
1.413,-0.0038,0.0022,0.0255,0.0052,-34.9
1.414,-0.0023,0.0022,0.0277,0.0037,-35.1
1.415,-0.003,0.0045,0.033,-0.0015,-35.2
1.416,-0.003,0.0045,0.0337,-0.0053,-35.4
1.417,-0.0038,0.0015,0.0367,-0.0053,-35.6
1.418,-0.0046,0.0037,0.036,-0.0053,-35.8
1.419,-0.0038,0.0045,0.0382,-0.0053,-36.0
1.42,-0.0023,0.0045,0.042,-0.0068,-36.2
1.421,-0.003,0.0052,0.0405,-0.006,-36.4
1.422,-0.0015,0.003,0.042,-0.0091,-36.6
1.423,-0.0015,0.0015,0.0367,-0.0113,-36.8
1.424,-0.0015,0.0007,0.0352,-0.012,-36.9
1.425,-0.0008,0.0007,0.0352,-0.0091,-37.2
1.426,-0.006,0.0007,0.03,-0.0053,-37.4
1.427,-0.0053,-0.0008,0.0255,-0.0015,-37.5
1.428,-0.003,0.0,0.0187,0.003,-37.7
1.429,-0.0083,0.0007,0.0195,0.0045,-37.9
1.43,-0.0046,-0.0008,0.018,0.0067,-38.1
1.431,-0.003,0.0022,0.0127,0.0067,-38.3
1.432,-0.0023,0.003,0.0172,0.009,-38.5
1.433,0.0007,0.003,0.0142,0.0082,-38.7
1.434,-0.0008,0.0037,0.0142,0.006,-38.9
1.435,0.0022,0.0022,0.0142,0.0067,-39.1
1.436,0.0,0.003,0.0157,0.0037,-39.3
1.437,-0.0023,0.0022,0.0165,0.0037,-39.5
1.438,-0.0015,0.003,0.0097,0.0,-39.6
1.439,-0.003,0.0007,0.009,-0.0046,-39.9
1.44,-0.0023,0.0007,0.006,-0.006,-40.1
1.441,-0.003,0.0007,0.0007,-0.0068,-40.2
1.442,-0.0023,0.0007,0.0037,-0.0015,-40.5
1.443,-0.0015,0.0015,0.0,-0.0008,-40.6
1.444,-0.003,0.0,0.0007,-0.0015,-40.9
1.445,-0.0008,-0.0008,0.0007,-0.0008,-41.0
1.446,0.0007,-0.0008,0.0007,0.0,-41.2
1.447,0.0015,-0.0008,0.0052,-0.0038,-41.4
1.448,0.0015,-0.0046,0.009,-0.006,-41.6
1.449,0.0007,-0.0068,0.0157,-0.0068,-41.9
1.45,0.0,-0.006,0.0225,-0.0053,-42.0
1.451,-0.0015,-0.0068,0.0367,-0.003,-42.2
1.452,-0.003,-0.0068,0.0315,-0.0015,-42.4
1.453,-0.0015,-0.0053,-0.0075,-0.003,-42.6
1.454,-0.0015,-0.0053,-0.0428,-0.0053,-42.8
1.455,-0.0023,-0.0068,-0.078,-0.0046,-43.0
1.456,-0.003,-0.006,-0.108,-0.0046,-43.2
1.457,-0.0053,-0.0046,-0.1238,-0.0053,-43.4
1.458,-0.0046,-0.0023,-0.1403,-0.0053,-43.6
1.459,-0.0015,-0.0008,-0.1365,-0.006,-43.8
1.46,0.0007,0.0007,-0.1275,-0.003,-44.1
1.461,0.0022,0.0,-0.1185,-0.0046,-44.2
1.462,0.0015,-0.0008,-0.108,-0.003,-44.4
1.463,0.0045,-0.0015,-0.1058,-0.0008,-44.6
1.464,0.0015,-0.0046,-0.0915,0.0022,-44.7
1.465,-0.0008,-0.0046,-0.0735,0.0067,-44.9
1.466,0.0,-0.0023,-0.0473,0.0075,-45.1
1.467,-0.0008,-0.0008,-0.0285,0.0075,-45.3
1.468,0.0007,0.0,-0.0105,0.0075,-45.5
1.469,-0.0015,0.003,0.009,0.0112,-45.6
1.47,-0.0008,0.003,0.0225,0.012,-45.8
1.471,0.0015,0.0015,0.0345,0.0105,-46.0
1.472,0.0007,0.003,0.0375,0.0112,-46.2
1.473,0.0045,0.003,0.0427,0.009,-46.4
1.474,0.0007,0.0067,0.0405,0.0082,-46.5
1.475,0.0015,0.0075,0.0375,0.0037,-46.7
1.476,0.003,0.0082,0.0352,0.0007,-46.9
1.477,0.0,0.009,0.0307,-0.0015,-47.1
1.478,0.0015,0.0022,0.0232,-0.003,-47.3
1.479,-0.0008,0.0015,0.0105,-0.003,-47.4
1.48,-0.0008,0.0007,-0.0015,-0.0068,-47.7
1.481,-0.0008,0.0007,-0.0158,-0.0091,-47.7
1.482,-0.0038,0.0007,-0.0278,-0.0075,-47.9
1.483,-0.0023,0.0,-0.0405,-0.0083,-48.1
1.484,-0.0015,0.0,-0.045,-0.0075,-48.2
1.485,-0.0008,-0.0015,-0.0428,-0.006,-48.4
1.486,-0.0008,-0.0008,-0.0383,-0.0008,-48.5
1.487,-0.0008,-0.0008,-0.0285,0.0015,-48.6
1.488,-0.0015,-0.0015,-0.0188,0.003,-48.8
1.489,-0.0046,-0.0023,-0.0046,0.0022,-49.0
1.49,-0.0038,-0.0015,0.0045,0.0007,-49.1
1.491,-0.0038,-0.0015,0.012,0.0015,-49.2
1.492,-0.003,-0.003,0.018,-0.0023,-49.4
1.493,-0.0015,-0.0046,0.0232,-0.0015,-49.5
1.494,-0.0015,-0.0053,0.0292,-0.0008,-49.7
1.495,0.003,-0.0053,0.036,0.0007,-49.9
1.496,0.0067,-0.0075,0.0457,0.003,-50.0
1.497,0.006,-0.0075,0.0465,0.0045,-50.1
1.498,0.0045,-0.0075,0.0495,0.0052,-50.3
1.499,0.0037,-0.0091,0.0495,0.0052,-50.4
1.5,0.0045,-0.0075,0.0495,0.0067,-50.6
1.501,0.0045,-0.0075,0.0532,0.0052,-50.7
1.502,0.0015,-0.0091,0.051,0.0015,-50.8
1.503,0.0,-0.0091,0.0495,0.0015,-50.9
1.504,0.0022,-0.0083,0.0457,0.003,-51.0
1.505,-0.0008,-0.0083,0.0427,0.0022,-51.1
1.506,-0.003,-0.0098,0.0367,0.0015,-51.2
1.507,-0.0038,-0.0091,0.0322,0.0,-51.3
1.508,-0.0068,-0.0083,0.0277,-0.0015,-51.3
1.509,-0.006,-0.0068,0.027,-0.0008,-51.4
1.51,-0.0053,-0.0083,0.0277,-0.0008,-51.6
1.511,-0.0038,-0.0083,0.0232,0.0007,-51.7
1.512,-0.0053,-0.0068,0.024,0.0007,-51.8
1.513,-0.0053,-0.0046,0.0232,-0.0008,-51.8
1.514,-0.003,-0.0038,0.0232,-0.003,-51.9
1.515,-0.0046,-0.0046,0.0247,-0.0038,-52.0
1.516,-0.0038,-0.003,0.0217,-0.003,-52.1
1.517,-0.003,-0.0023,0.0225,-0.0046,-52.2
1.518,-0.0008,0.0,0.0195,-0.0023,-52.3
1.519,0.003,0.0007,0.0165,-0.0008,-52.4
1.52,0.0015,0.003,0.0157,0.0015,-52.6
1.521,0.0007,0.0067,0.012,0.0045,-52.6
1.522,0.0045,0.009,0.012,0.0052,-52.7
1.523,0.0045,0.0135,0.012,0.0052,-52.7
1.524,0.0052,0.0127,0.0105,0.0067,-52.8
1.525,0.0052,0.012,0.012,0.0082,-52.9
1.526,0.0022,0.0112,0.0105,0.0067,-53.0
1.527,0.0022,0.0082,0.0075,0.0045,-53.1
1.528,0.0007,0.009,0.0082,0.0045,-53.1
1.529,0.0022,0.0067,0.006,0.0015,-53.2
1.53,0.0015,0.003,0.0067,-0.0008,-53.3
1.531,-0.0038,0.0007,0.0097,-0.003,-53.4
1.532,-0.0023,-0.0008,0.0097,-0.0046,-53.5
1.533,-0.003,-0.003,0.0112,-0.0046,-53.6
1.534,-0.0053,-0.0015,0.0105,-0.0075,-53.6
1.535,-0.0046,-0.003,0.0067,-0.0083,-53.7
1.536,-0.0046,-0.0053,0.0037,-0.0105,-53.8
1.537,-0.0038,-0.0053,0.0,-0.0143,-53.9
1.538,-0.0053,-0.0046,-0.003,-0.0113,-54.0
1.539,-0.003,-0.0015,-0.0008,-0.0068,-54.0
1.54,-0.0038,0.003,0.0037,-0.0038,-54.1
1.541,-0.0046,0.0067,0.0045,-0.0008,-54.1
1.542,-0.0008,0.0082,0.0082,0.0,-54.2
1.543,0.0,0.0105,0.0052,-0.0015,-54.2
1.544,0.0015,0.009,0.0007,0.0007,-54.3
1.545,0.0015,0.0105,0.0015,0.0022,-54.4
1.546,-0.003,0.012,-0.0015,0.0015,-54.4
1.547,-0.003,0.0082,-0.0038,0.0007,-54.5
1.548,-0.0023,0.0067,-0.0053,-0.0008,-54.5
1.549,-0.0008,0.0067,-0.006,0.0007,-54.5
1.55,0.0022,0.0067,-0.0046,0.0015,-54.6
1.551,0.0015,0.0067,-0.0053,0.0022,-54.6
1.552,0.0007,0.003,-0.003,0.003,-54.7
1.553,-0.0046,0.003,0.0,0.0015,-54.7
1.554,-0.0068,0.0015,-0.0015,0.0022,-54.8
1.555,-0.0046,0.0037,-0.0008,0.0022,-54.9
1.556,-0.0015,0.0052,-0.0015,0.003,-54.9
1.557,0.0022,0.0045,-0.003,0.003,-54.9
1.558,0.0,0.0067,-0.003,0.0007,-55.0
1.559,-0.0008,0.0067,-0.0008,0.0015,-55.0
1.56,0.003,0.0067,-0.0023,0.0015,-55.1
1.561,0.0007,0.0037,-0.0008,0.0015,-55.1
1.562,0.0015,0.0045,0.003,0.0007,-55.1
1.563,0.0015,0.0052,0.003,0.0007,-55.1
1.564,0.0007,0.0075,0.0052,0.0022,-55.1
1.565,0.0015,0.009,0.0037,0.003,-55.2
1.566,-0.0008,0.0067,0.006,0.0022,-55.2
1.567,-0.0008,0.0045,0.0052,0.0007,-55.2
1.568,-0.0046,0.003,0.003,0.0007,-55.2
1.569,-0.0046,0.0037,-0.0015,0.0,-55.2
1.57,-0.003,0.0037,-0.0023,-0.0023,-55.3
1.571,-0.0053,0.0007,-0.0038,0.0007,-55.3
1.572,-0.003,-0.003,-0.0068,0.0007,-55.3
1.573,-0.006,-0.003,-0.006,-0.0015,-55.3
1.574,-0.006,-0.0023,-0.0098,0.0,-55.3
1.575,-0.003,-0.0015,-0.0083,0.0007,-55.3
1.576,-0.0046,-0.0008,-0.0091,0.0007,-55.4
1.577,-0.0053,0.0,-0.0075,0.003,-55.4
1.578,-0.003,0.0007,-0.0046,0.003,-55.4
1.579,-0.003,0.0,-0.0046,0.003,-55.4
1.58,-0.0015,-0.0015,-0.0008,0.0007,-55.4
1.581,0.003,-0.003,-0.0008,-0.0008,-55.4
1.582,0.0052,-0.0053,0.003,0.0007,-55.4
1.583,0.0037,-0.0053,0.003,0.0007,-55.4
1.584,0.0052,-0.003,0.0015,-0.0015,-55.4
1.585,0.0037,-0.0015,0.0007,-0.0046,-55.3
1.586,-0.0015,-0.0015,-0.0015,-0.003,-55.3
1.587,-0.0015,-0.0015,0.0007,-0.0038,-55.3
1.588,-0.003,-0.0008,0.0015,-0.003,-55.3
1.589,-0.0023,-0.0015,0.0052,-0.0023,-55.2
1.59,-0.0008,-0.003,0.0052,-0.0023,-55.2
1.591,0.0,-0.003,0.003,-0.0015,-55.2
1.592,0.0007,-0.0038,0.0037,-0.003,-55.1
1.593,-0.0008,-0.0038,0.0015,-0.0046,-55.1
1.594,0.0007,-0.003,0.0022,-0.003,-55.1
1.595,0.0,-0.0038,0.0007,-0.0023,-55.1
1.596,-0.0046,-0.0015,0.0007,-0.0015,-55.0
1.597,-0.0046,-0.0008,0.0007,-0.0008,-55.0
1.598,-0.0053,0.0,-0.0015,-0.0008,-55.0
1.599,-0.0068,-0.0008,-0.0008,-0.003,-55.0
1.6,-0.0046,-0.0046,-0.0015,-0.0008,-54.9
1.601,-0.003,-0.0068,-0.0008,-0.0008,-54.9
1.602,-0.0023,-0.0075,-0.0038,-0.0015,-54.9
1.603,0.0007,-0.0068,-0.003,-0.0015,-54.8
1.604,0.0022,-0.0083,0.0007,-0.003,-54.8
1.605,-0.0008,-0.0068,-0.0015,-0.0008,-54.7
1.606,0.0015,-0.0053,0.0007,-0.0008,-54.7
1.607,0.0037,-0.0068,0.0015,-0.0023,-54.6
1.608,0.0015,-0.003,0.0015,0.0015,-54.6
1.609,0.0007,-0.0015,-0.0008,0.0015,-54.5
1.61,-0.0015,0.0007,-0.0046,-0.0008,-54.5
1.611,-0.003,0.0015,-0.0046,-0.0008,-54.5
1.612,-0.0046,-0.0008,-0.003,-0.0023,-54.5
1.613,-0.0038,-0.0015,-0.0015,0.0,-54.4
1.614,-0.0015,-0.003,-0.0015,0.0022,-54.4
1.615,0.0007,-0.0015,0.0015,0.0007,-54.3
1.616,0.0007,-0.0015,0.0,0.0007,-54.3
1.617,0.0007,-0.0015,0.0007,0.0007,-54.2
1.618,0.0015,-0.0015,0.0015,-0.0008,-54.2
1.619,-0.003,0.0,0.0007,0.0007,-54.1
1.62,-0.003,0.0015,0.0015,0.0022,-54.1
1.621,-0.0046,0.0007,-0.003,0.0037,-54.0
1.622,-0.0075,0.0007,-0.0046,0.003,-54.0
1.623,-0.003,0.0007,-0.0053,0.0007,-53.9
1.624,-0.0038,0.0,-0.0053,-0.0008,-53.9
1.625,-0.0015,-0.0015,-0.0046,-0.0015,-53.8
1.626,0.0,-0.0023,-0.0053,-0.0023,-53.7
1.627,-0.0023,-0.0046,-0.0023,-0.0015,-53.7
1.628,-0.003,-0.003,-0.0023,-0.0015,-53.6
1.629,-0.0046,0.0,-0.0015,-0.0015,-53.6
1.63,-0.0015,-0.0015,-0.0038,0.0,-53.5
1.631,-0.0046,-0.0008,-0.0075,-0.0008,-53.5
1.632,-0.0053,0.0007,-0.0046,0.0,-53.4
1.633,-0.0038,0.0007,-0.0068,-0.0008,-53.3
1.634,-0.0008,0.0015,-0.0053,-0.0008,-53.3
1.635,0.0007,0.0015,-0.003,-0.0015,-53.2
1.636,-0.0015,0.003,-0.0038,-0.0023,-53.1
1.637,-0.0008,0.0037,-0.0015,0.0,-53.1
1.638,-0.0015,0.0007,-0.0038,-0.0008,-53.1
1.639,-0.0008,-0.0008,-0.0008,0.0,-53.0
1.64,-0.0008,-0.0008,-0.0008,-0.0008,-52.9
1.641,-0.003,-0.0008,0.0007,0.0,-52.8
1.642,-0.0015,-0.0015,0.003,0.0,-52.8
1.643,-0.0015,-0.0023,0.0022,0.0015,-52.7
1.644,-0.0008,-0.0015,0.003,0.0015,-52.6
1.645,-0.0008,-0.003,0.0015,-0.0015,-52.5
1.646,-0.0008,-0.0046,0.0037,-0.0008,-52.5
1.647,0.0,-0.0053,0.0045,-0.0015,-52.4
1.648,-0.0015,-0.0046,0.0045,-0.0008,-52.3
1.649,0.0,-0.003,0.0037,-0.0008,-52.2
1.65,0.0007,-0.0053,0.0015,0.0,-52.2
1.651,0.0,-0.0053,0.003,0.0007,-52.1
1.652,-0.0008,-0.0046,0.0015,-0.0015,-52.0
1.653,-0.0038,-0.0053,0.0007,-0.0008,-51.9
1.654,-0.0053,-0.0046,0.0,-0.003,-51.8
1.655,-0.0053,-0.0023,0.0,-0.0015,-51.8
1.656,-0.0046,-0.0023,0.0015,0.0007,-51.7
1.657,-0.003,-0.0015,-0.0008,-0.0023,-51.6
1.658,-0.0008,-0.0015,0.0,-0.0008,-51.5
1.659,-0.0015,-0.0008,0.0015,-0.0008,-51.5
1.66,-0.0053,-0.0015,0.0022,-0.0015,-51.4
1.661,-0.0038,-0.0023,0.0052,0.0015,-51.3
1.662,-0.0046,-0.0015,0.0045,0.0022,-51.2
1.663,-0.0083,-0.0015,0.003,0.003,-51.1
1.664,-0.0046,-0.0023,0.0045,0.0022,-51.0
1.665,-0.0053,0.0007,0.0052,0.003,-50.9
1.666,-0.0053,0.003,0.0067,0.003,-50.8
1.667,0.0,0.0015,0.0067,0.0007,-50.7
1.668,-0.0008,0.003,0.0052,0.0007,-50.6
1.669,0.0,0.0015,0.0045,0.0007,-50.5
1.67,-0.0008,0.0007,0.0052,-0.0015,-50.4
1.671,-0.0046,-0.0008,0.0045,-0.003,-50.3
1.672,-0.003,-0.003,0.0067,-0.0008,-50.2
1.673,0.0,-0.0046,0.009,-0.0008,-50.1
1.674,0.0007,-0.003,0.009,-0.003,-50.0
1.675,0.003,-0.0038,0.0112,-0.003,-49.9
1.676,0.003,-0.0046,0.0105,-0.0008,-49.8
1.677,0.0052,-0.003,0.0082,-0.0008,-49.7
1.678,0.0067,0.0007,0.0037,-0.0015,-49.6
1.679,0.0067,0.0022,0.0007,-0.0015,-49.5
1.68,0.0082,0.0015,-0.0008,-0.003,-49.4
1.681,0.0052,0.0022,0.0,-0.0023,-49.3
1.682,0.009,0.0015,0.0015,-0.0038,-49.2
1.683,0.0097,0.0,0.0022,-0.003,-49.1
1.684,0.009,-0.0008,0.003,0.0,-49.0
1.685,0.0142,-0.003,0.0022,0.0007,-48.9
1.686,0.0142,-0.003,0.003,0.0015,-48.8
1.687,0.0187,-0.0015,0.0015,0.0015,-48.6
1.688,0.0195,-0.0008,0.0015,0.0022,-48.6
1.689,0.0165,0.0007,0.003,0.0022,-48.4
1.69,0.0202,0.0,0.0007,0.0015,-48.3
1.691,0.0157,0.0007,0.0,0.0022,-48.2
1.692,0.0142,-0.0008,-0.0015,0.0015,-48.1
1.693,0.0127,0.0007,-0.003,0.0,-48.0
1.694,0.0082,0.0022,-0.0015,-0.0015,-47.9
1.695,0.0067,0.0015,-0.0008,-0.0023,-47.8
1.696,0.0015,0.0015,0.0007,0.0,-47.7
1.697,0.0022,0.0,-0.0015,-0.0015,-47.6
1.698,0.0007,-0.0008,-0.0023,-0.003,-47.5
1.699,0.0007,-0.003,-0.0015,-0.003,-47.3
1.7,0.0007,-0.0046,-0.0015,-0.003,-47.3
1.701,-0.003,-0.003,0.0015,-0.0008,-47.1
1.702,-0.0015,-0.0046,0.0015,0.0015,-47.0
1.703,-0.0046,-0.0046,0.0067,0.003,-46.8
1.704,-0.0046,-0.0053,0.0052,0.0022,-46.7
1.705,-0.0023,-0.006,0.0067,0.0007,-46.6
1.706,-0.0068,-0.0068,0.0075,0.0,-46.4
1.707,-0.0046,-0.0053,0.0045,-0.0008,-46.3
1.708,-0.0053,-0.0038,0.0075,-0.003,-46.2
1.709,-0.0053,-0.003,0.003,-0.0015,-46.0
1.71,-0.0053,-0.0023,0.0007,-0.0015,-45.9
1.711,-0.0098,-0.0008,0.0,0.0007,-45.8
1.712,-0.0091,-0.0008,0.0007,0.0022,-45.6
1.713,-0.012,0.0015,0.0015,0.0007,-45.5
1.714,-0.0143,0.0022,-0.0008,0.0007,-45.4
1.715,-0.0098,0.0015,0.0007,-0.0015,-45.2
1.716,-0.0091,0.0007,-0.0015,-0.0015,-45.1
1.717,-0.0105,-0.0008,0.0015,-0.0023,-45.0
1.718,-0.0075,0.0007,-0.0015,-0.003,-44.8
1.719,-0.0046,0.0007,-0.0015,-0.0015,-44.7
1.72,-0.0053,0.0015,0.0,-0.0023,-44.6
1.721,-0.0046,0.0007,-0.0008,-0.0015,-44.4
1.722,-0.0023,0.003,0.003,-0.0015,-44.2
1.723,-0.0023,0.0037,0.0015,-0.0015,-44.1
1.724,0.0,0.0045,0.0015,-0.0008,-44.0
1.725,-0.0008,0.0022,-0.0015,-0.0015,-43.8
1.726,-0.003,0.0007,0.0,-0.0008,-43.7
1.727,0.0,0.003,0.003,0.0007,-43.5
1.728,0.0022,0.003,0.0045,-0.0008,-43.3
1.729,0.0007,0.003,0.0082,0.0007,-43.2
1.73,0.0015,0.003,0.0052,0.0007,-43.0
1.731,0.0015,0.0022,0.006,0.0,-42.9
1.732,0.0007,0.0015,0.0082,-0.0015,-42.8
1.733,0.003,0.0007,0.009,-0.003,-42.6
1.734,0.003,0.003,0.0082,-0.0015,-42.4
1.735,0.0015,0.003,0.0082,-0.0008,-42.3
1.736,0.0022,0.003,0.009,0.0007,-42.1
1.737,0.0037,0.0015,0.0045,0.0015,-42.0
1.738,0.003,-0.0008,0.0045,0.0007,-41.9
1.739,0.0045,-0.003,0.003,0.0015,-41.7
1.74,0.0022,-0.0046,0.0052,0.0007,-41.5
1.741,0.0,-0.0038,0.0135,0.0015,-41.4
1.742,0.006,-0.0038,0.0135,0.0015,-41.2
1.743,0.003,-0.003,0.0105,-0.0008,-41.0
1.744,0.0015,-0.003,0.0052,0.0007,-40.8
1.745,0.0,-0.0015,-0.0015,-0.0023,-40.6
1.746,-0.006,-0.0008,-0.0083,-0.0015,-40.5
1.747,-0.0053,-0.0015,-0.0188,-0.0023,-40.3
1.748,-0.0046,-0.0015,-0.021,-0.0015,-40.1
1.749,-0.003,-0.0038,-0.021,-0.0015,-39.9
1.75,-0.0038,-0.003,-0.0158,-0.0015,-39.7
1.751,-0.006,-0.0008,-0.006,0.0007,-39.6
1.752,-0.0068,-0.003,-0.0015,-0.0015,-39.4
1.753,-0.0091,-0.003,0.0052,0.0015,-39.2
1.754,-0.0091,-0.003,0.0067,0.0015,-39.1
1.755,-0.0083,-0.0038,0.009,0.0,-38.9
1.756,-0.0053,-0.003,0.0097,0.0015,-38.7
1.757,-0.0046,-0.0015,0.0105,0.0015,-38.5
1.758,-0.0046,0.0007,0.0135,0.003,-38.3
1.759,-0.006,0.0022,0.0105,0.0007,-38.2
1.76,-0.0083,0.0015,0.0097,0.0007,-38.0
1.761,-0.0068,-0.0015,0.0052,-0.0008,-37.8
1.762,-0.0083,-0.0046,0.0007,-0.0008,-37.6
1.763,-0.0113,-0.0046,-0.0046,0.0007,-37.4
1.764,-0.0105,-0.0068,-0.0046,-0.003,-37.2
1.765,-0.0128,-0.0068,-0.0046,-0.0023,-37.0
1.766,-0.0158,-0.0053,-0.0053,-0.0015,-36.8
1.767,-0.0181,-0.0046,-0.0046,-0.0008,-36.6
1.768,-0.0165,-0.0038,-0.0038,-0.0015,-36.4
1.769,-0.0105,-0.0038,0.0022,-0.0015,-36.2
1.77,0.0015,-0.0053,0.0052,-0.0008,-36.0
1.771,0.0127,-0.0083,0.0097,0.0007,-35.8
1.772,0.018,-0.006,0.012,0.0007,-35.6
1.773,0.0232,-0.0053,0.0105,0.003,-35.4
1.774,0.0202,-0.0068,0.009,0.0015,-35.2
1.775,0.0157,-0.0015,0.0022,-0.0008,-35.0
1.776,0.009,-0.0015,-0.0008,-0.0015,-34.8
1.777,-0.0068,-0.003,0.0015,-0.0008,-34.6
1.778,-0.0128,-0.0038,0.006,0.0,-34.4
1.779,-0.0181,-0.0053,0.009,0.0015,-34.2
1.78,-0.024,-0.003,0.012,0.0037,-34.0
1.781,-0.021,-0.0023,0.0202,-0.003,-33.8
1.782,-0.0181,-0.0038,0.0232,-0.0068,-33.6
1.783,-0.012,-0.0015,0.018,-0.0075,-33.3
1.784,-0.0083,-0.0015,0.0127,-0.0091,-33.1
1.785,-0.0068,0.0007,0.0,-0.0053,-32.9
1.786,-0.0053,0.003,-0.0128,-0.0046,-32.6
1.787,-0.0008,0.003,-0.0256,-0.0038,-32.4
1.788,0.0045,0.0052,-0.0323,-0.0023,-32.2
1.789,0.003,0.0045,-0.0323,0.0,-32.0
1.79,0.0075,0.0037,-0.0293,-0.0008,-31.7
1.791,0.009,0.0045,-0.0195,0.0015,-31.5
1.792,0.012,0.0052,-0.0143,0.003,-31.3
1.793,0.0187,0.0052,-0.0098,0.0015,-31.1
1.794,0.0165,0.0015,-0.003,0.0015,-30.8
1.795,0.0157,0.003,-0.0015,0.0007,-30.6
1.796,0.015,0.0045,0.0045,0.003,-30.3
1.797,0.0127,0.0052,0.0067,0.0045,-30.1
1.798,0.012,0.0045,0.0082,0.003,-29.9
1.799,0.012,0.0007,0.0135,0.0015,-29.7
1.8,0.0112,-0.0015,0.0135,0.0007,-29.4
1.801,0.012,-0.0015,0.0165,0.0007,-29.2
1.802,0.0202,-0.003,0.0127,-0.0008,-28.9
1.803,0.0255,-0.0053,0.0082,0.0007,-28.7
1.804,0.0292,-0.0038,0.0082,0.0,-28.5
1.805,0.033,-0.0053,0.003,-0.0015,-28.2
1.806,0.0367,-0.0068,-0.0008,-0.006,-28.0
1.807,0.036,-0.0053,-0.0038,-0.0053,-27.8
1.808,0.0247,-0.0038,-0.0038,-0.0038,-27.5
1.809,0.0142,0.003,-0.0075,-0.0046,-27.3
1.81,0.0045,0.0067,-0.0083,-0.0053,-27.0
1.811,-0.0008,0.003,-0.0068,-0.0046,-26.8
1.812,-0.0023,0.003,0.0007,-0.0008,-26.6
1.813,-0.003,0.0082,0.0165,0.0015,-26.3
1.814,-0.0015,0.0052,0.033,0.0037,-26.1
1.815,0.0007,0.0052,0.0405,0.003,-25.8
1.816,0.0067,0.0045,0.0345,-0.0008,-25.6
1.817,0.006,0.0045,0.03,0.0,-25.3
1.818,0.0007,0.0067,0.021,-0.0008,-25.1
1.819,-0.0113,0.0007,0.0052,-0.0015,-24.8
1.82,-0.021,-0.0023,-0.0083,0.0,-24.6
1.821,-0.0203,-0.0105,-0.0218,0.0,-24.3
1.822,-0.021,-0.0203,-0.027,0.0007,-24.1
1.823,-0.0143,-0.0105,-0.0278,0.0022,-23.9
1.824,-0.0105,0.003,-0.0218,0.0022,-23.6
1.825,-0.012,0.015,-0.0143,0.003,-23.3
1.826,-0.0068,0.024,-0.0113,0.0052,-23.1
1.827,-0.0105,0.0232,-0.0023,0.0067,-22.8
1.828,-0.0158,0.0127,0.0007,0.0052,-22.5
1.829,-0.0225,0.0075,0.0037,0.0052,-22.3
1.83,-0.0278,0.015,0.0015,0.0075,-22.1
1.831,-0.033,0.0135,-0.003,0.0,-21.8
1.832,-0.042,-0.0008,-0.0091,-0.0068,-21.6
1.833,-0.0383,-0.0091,-0.0203,-0.0075,-21.3
1.834,-0.0315,-0.0075,-0.0233,-0.012,-21.0
1.835,-0.0293,-0.0075,-0.0218,-0.0091,-20.7
1.836,-0.0278,-0.006,-0.012,-0.0053,-20.5
1.837,-0.0263,-0.0023,-0.0068,0.0007,-20.3
1.838,-0.0203,-0.0015,-0.0038,0.0052,-20.0
1.839,-0.0181,0.003,0.0045,0.0067,-19.8
1.84,-0.0181,0.0082,0.0112,0.0067,-19.5
1.841,-0.012,0.0127,0.0202,0.0097,-19.2
1.842,-0.0068,0.0165,0.033,0.0127,-19.0
1.843,-0.0046,0.0127,0.0705,0.0112,-18.7
1.844,-0.0038,0.0067,0.093,0.0082,-18.5
1.845,-0.006,-0.0038,0.0742,-0.0105,-18.2
1.846,-0.0105,-0.012,0.0405,-0.0405,-18.0
1.847,-0.0128,-0.0181,-0.0203,-0.0361,-17.7
1.848,-0.0128,-0.0248,-0.0706,-0.0158,-17.4
1.849,-0.0128,-0.0195,-0.099,-0.0113,-17.2
1.85,-0.0105,-0.0173,-0.075,0.0022,-16.9
1.851,-0.0023,-0.015,0.0067,0.0052,-16.7
1.852,-0.0053,-0.0105,0.0495,0.0067,-16.4
1.853,-0.0053,-0.0098,0.0525,0.009,-16.2
1.854,-0.0015,0.0037,0.0247,-0.0068,-15.9
1.855,0.0,0.0217,-0.0323,-0.0346,-15.6
1.856,0.0007,0.021,-0.0728,-0.0308,-15.4
1.857,-0.0015,-0.0091,-0.099,0.009,-15.1
1.858,0.003,-0.0308,-0.0983,0.0172,-14.9
1.859,0.0052,-0.024,-0.075,0.039,-14.6
1.86,0.0067,-0.0091,-0.0473,0.084,-14.4
1.861,0.0052,0.0142,-0.0173,0.1072,-14.1
1.862,0.003,0.0405,-0.0023,0.0862,-13.9
1.863,0.0052,0.0555,0.0217,0.0285,-13.6
1.864,0.0007,0.0232,0.0465,-0.042,-13.4
1.865,-0.003,-0.0563,0.0577,-0.0856,-13.1
1.866,-0.0038,-0.1088,0.0585,-0.0818,-12.9
1.867,-0.0015,-0.12,0.0585,-0.1133,-12.6
1.868,-0.0008,-0.1426,0.0607,-0.1275,-12.4
1.869,0.0,-0.2078,0.0502,-0.1065,-12.1
1.87,0.0052,-0.2648,0.0442,-0.0495,-11.8
1.871,0.0037,-0.2153,0.0367,0.0727,-11.6
1.872,0.0082,-0.0578,0.033,0.0472,-11.3
1.873,0.012,0.108,0.0247,-0.0046,-11.1
1.874,0.0067,0.3555,0.0105,0.087,-10.8
1.875,0.0082,0.5887,0.0007,0.1027,-10.6
1.876,0.0045,0.507,-0.0135,0.0825,-10.4
1.877,0.0015,0.258,-0.0218,0.063,-10.1
1.878,0.0052,0.1657,-0.0225,0.0337,-9.9
1.879,0.006,0.1612,-0.0225,0.0345,-9.6
1.88,0.0075,0.0705,-0.0143,0.0052,-9.4
1.881,0.0045,-0.0256,-0.006,0.003,-9.1
1.882,-0.0023,-0.0728,0.0015,0.0,-8.9
1.883,-0.0046,-0.1035,0.0165,-0.0615,-8.7
1.884,-0.0046,-0.1441,0.039,-0.126,-8.5
1.885,-0.003,-0.1628,0.048,-0.1155,-8.2
1.886,0.003,-0.105,0.0352,-0.042,-8.1
1.887,0.012,-0.0256,0.0232,0.0427,-7.8
1.888,0.0202,0.021,-0.0046,0.132,-7.6
1.889,0.0255,-0.0218,-0.0256,0.147,-7.4
1.89,0.0217,-0.06,-0.039,0.0952,-7.2
1.891,0.0165,-0.0293,-0.039,0.036,-6.9
1.892,0.0067,-0.0413,-0.0105,0.0307,-6.7
1.893,-0.0105,-0.042,0.03,0.0577,-6.5
1.894,-0.0218,-0.0443,0.0457,0.0405,-6.3
1.895,-0.024,-0.0923,0.0307,-0.012,-6.0
1.896,-0.015,-0.1155,0.0217,-0.1935,-5.9
1.897,-0.0023,-0.1103,0.0052,-0.318,-5.6
1.898,0.0082,-0.078,-0.0195,-0.2055,-5.4
1.899,0.0135,-0.0173,-0.0555,0.024,-5.2
1.9,0.012,0.0675,-0.0803,0.1275,-5.0
1.901,0.0142,0.0757,-0.0885,0.0547,-4.8
1.902,0.0127,0.0352,-0.0773,-0.0091,-4.6
1.903,0.0112,0.033,-0.0495,-0.0585,-4.5
1.904,0.0052,0.0045,-0.0181,-0.1021,-4.3
1.905,0.0015,-0.0278,0.0307,-0.1095,-4.1
1.906,0.0052,-0.042,0.048,-0.0023,-4.0
1.907,0.003,-0.0458,0.0495,0.0817,-3.9
1.908,0.003,-0.0368,0.054,0.1237,-3.7
1.909,0.0015,-0.0173,0.054,0.2025,-3.5
1.91,-0.0046,0.0112,0.057,0.147,-3.4
1.911,-0.0053,0.003,0.0495,0.057,-3.2
1.912,-0.0091,-0.0203,0.0375,0.036,-3.1
1.913,-0.0113,-0.0173,0.0165,0.0345,-2.9
1.914,-0.0091,-0.0008,-0.0015,0.0135,-2.7
1.915,-0.0075,0.0022,-0.0008,-0.045,-2.6
1.916,-0.0015,0.003,0.0015,-0.1006,-2.4
1.917,-0.0008,-0.054,0.0067,-0.1095,-2.3
1.918,-0.0046,-0.1665,0.0052,-0.114,-2.1
1.919,-0.0068,-0.1575,0.0142,-0.129,-1.9
1.92,-0.0053,-0.0953,0.0465,-0.15,-1.8
1.921,-0.0015,-0.0893,0.0645,-0.159,-1.7
1.922,0.0022,-0.027,0.0525,-0.1155,-1.6
1.923,0.0037,0.0847,0.024,-0.0818,-1.5
1.924,0.009,0.2272,-0.0195,0.0202,-1.4
1.925,0.0217,0.327,-0.0555,0.0555,-1.3
1.926,0.0247,0.3007,-0.0645,0.0795,-1.2
1.927,0.0217,0.252,-0.0308,0.1492,-1.1
1.928,0.0232,0.105,0.024,0.0915,-1.0
1.929,0.0142,-0.0413,0.0345,0.2242,-0.9
1.93,-0.006,-0.042,0.0232,0.2722,-0.8
1.931,-0.024,-0.0503,-0.0098,0.138,-0.7
1.932,-0.033,-0.063,-0.0346,-0.0023,-0.6
1.933,-0.0315,-0.0825,-0.039,-0.1426,-0.5
1.934,-0.0218,-0.0915,-0.0428,-0.0188,-0.4
1.935,0.0037,-0.0915,-0.0203,0.1425,-0.3
1.936,0.0262,-0.1553,-0.0128,0.1807,-0.2
1.937,0.0277,-0.1696,-0.0135,0.0045,-0.1
1.938,0.0142,-0.0878,-0.0158,-0.1373,0.0
1.939,-0.003,0.0397,-0.0218,-0.105,0.1
1.94,-0.021,0.1492,0.0007,-0.2011,0.2
1.941,-0.042,0.1785,0.0225,-0.1785,0.3
1.942,-0.042,0.1335,0.0315,-0.021,0.3
1.943,-0.0263,0.1087,0.042,0.0885,0.3
1.944,-0.015,0.0817,0.0502,0.084,0.3
1.945,0.009,-0.006,0.048,0.0637,0.4
1.946,0.0292,-0.0413,0.027,0.078,0.4
1.947,0.0405,-0.0533,0.009,0.0502,0.4
1.948,0.0367,-0.048,-0.0083,0.0765,0.4
1.949,0.0105,-0.0218,-0.0203,0.0307,0.4
1.95,-0.0053,-0.0368,-0.0188,-0.0135,0.5
1.951,-0.0181,-0.0495,-0.024,-0.0285,0.5
1.952,-0.0195,-0.063,-0.0203,-0.0533,0.5
1.953,-0.0105,-0.0765,-0.0218,-0.0368,0.5
1.954,-0.0068,-0.09,-0.0233,-0.0495,0.6
1.955,-0.0008,-0.0818,-0.012,-0.0383,0.6
1.956,-0.003,-0.0518,-0.006,-0.0458,0.6
1.957,-0.003,-0.0338,0.0045,-0.0413,0.6
1.958,-0.0068,-0.0105,0.0045,-0.0181,0.7
1.959,-0.0091,0.009,0.0097,-0.0173,0.7
1.96,0.0,0.0285,0.0217,-0.0278,0.7
1.961,0.0045,0.0427,0.033,-0.054,0.7
1.962,0.0022,0.0352,0.0367,-0.039,0.7
1.963,-0.0083,0.0007,0.0202,0.009,0.6
1.964,-0.0278,-0.021,0.003,0.0382,0.6
1.965,-0.0511,-0.0195,-0.0195,-0.0046,0.5
1.966,-0.0691,0.0067,0.0067,-0.0743,0.4
1.967,-0.0818,0.063,0.09,-0.1125,0.4
1.968,-0.063,0.0787,0.1327,-0.0825,0.4
1.969,-0.015,0.075,0.1095,0.0592,0.3
1.97,0.0427,0.0855,0.0457,0.0652,0.3
1.971,0.0915,0.0645,-0.057,0.0255,0.2
1.972,0.1065,0.0292,-0.1298,0.1537,0.2
1.973,0.1177,0.0007,-0.1598,0.1057,0.1
1.974,0.1162,-0.0346,-0.1741,-0.0098,0.1
1.975,0.1125,-0.0495,-0.15,-0.0465,0.0
1.976,0.1117,-0.039,-0.1185,-0.108,0.0
1.977,0.0652,-0.0623,-0.06,-0.0878,-0.1
1.978,0.0172,-0.0878,-0.0046,-0.1065,-0.1
1.979,-0.0285,-0.0878,0.0202,-0.0608,-0.2
1.98,-0.0706,-0.0675,0.0502,0.0637,-0.3
1.981,-0.0893,-0.033,0.0622,0.0952,-0.3
1.982,-0.1013,-0.0046,0.075,0.0195,-0.5
1.983,-0.075,0.0307,0.09,0.0007,-0.5
1.984,-0.039,0.0825,0.0907,0.1957,-0.6
1.985,-0.0053,0.1635,0.093,0.2475,-0.8
1.986,0.0277,0.2302,0.0697,0.1282,-0.9
1.987,0.033,0.174,0.0405,0.0502,-0.9
1.988,0.024,0.0457,0.0232,-0.012,-1.1
1.989,0.0105,0.0,0.0165,-0.0068,-1.2
1.99,-0.0091,-0.003,0.0225,-0.0083,-1.3
1.991,-0.0323,-0.0256,0.012,-0.0338,-1.4
1.992,-0.0428,-0.0488,0.0105,-0.045,-1.5
1.993,-0.0405,-0.0691,0.0082,-0.0428,-1.6
1.994,-0.0338,-0.0638,-0.0091,-0.027,-1.7
1.995,-0.0203,-0.0578,-0.0256,-0.0428,-1.8
1.996,-0.0181,-0.0405,-0.0308,-0.0953,-1.9
1.997,-0.0113,-0.0293,-0.0225,-0.1305,-2.0
1.998,-0.003,-0.0383,-0.012,-0.0953,-2.1
1.999,0.0015,-0.0346,-0.003,-0.0825,-2.3
2.0,0.0112,-0.048,-0.0046,-0.1208,-2.4
2.001,0.0082,-0.0368,-0.03,-0.1245,-2.5
2.002,0.0007,-0.003,-0.06,-0.057,-2.6
2.003,0.0007,0.03,-0.066,0.0862,-2.7
2.004,0.0007,0.057,-0.0608,0.1605,-2.8
2.005,0.0007,0.0405,-0.0315,0.129,-3.0
2.006,-0.0015,0.0255,0.0202,0.1005,-3.1
2.007,-0.0023,0.009,0.054,0.066,-3.2
2.008,-0.003,-0.0023,0.066,0.0165,-3.3
2.009,-0.0008,-0.0105,0.0472,-0.003,-3.4
2.01,0.0037,-0.0578,0.009,-0.0353,-3.6
2.011,0.0007,-0.0713,-0.024,-0.0518,-3.7
2.012,0.0,-0.0495,-0.0503,-0.0293,-3.8
2.013,-0.0105,-0.0308,-0.0645,-0.012,-3.9
2.014,-0.0293,-0.0143,-0.0608,0.003,-4.1
2.015,-0.0315,-0.0053,-0.0353,-0.0046,-4.2
2.016,-0.0338,-0.0046,0.0052,-0.0091,-4.3
2.017,-0.0256,-0.0053,0.018,-0.0135,-4.4
2.018,-0.0083,0.0007,0.009,-0.0105,-4.5
2.019,0.018,0.0075,0.0165,0.0007,-4.6
2.02,0.0487,0.0135,0.009,0.0007,-4.8
2.021,0.0615,0.0127,0.0045,-0.0008,-4.8
2.022,0.063,0.0067,0.0045,0.0037,-4.8
2.023,0.0352,0.0082,0.024,0.0352,-4.8
2.024,0.0097,0.0135,0.0675,0.0427,-4.8
2.025,0.0015,0.0142,0.0862,0.0015,-4.8
2.026,-0.0165,0.0045,0.075,-0.0233,-4.8
2.027,-0.0188,-0.0023,0.0307,-0.0181,-4.9
2.028,-0.0248,-0.0053,-0.0353,-0.0023,-4.9
2.029,-0.0285,0.0007,-0.0765,0.021,-4.9
2.03,-0.0105,0.0165,-0.0773,0.054,-4.9
2.031,0.0052,0.0247,-0.0608,0.0645,-4.9
2.032,0.03,0.015,-0.0533,0.0367,-4.9
2.033,0.033,-0.0181,-0.0495,0.021,-4.9
2.034,0.027,-0.0346,-0.0405,0.0255,-5.0
2.035,0.03,-0.0278,-0.0263,0.0307,-5.0
2.036,0.0172,-0.0233,0.003,0.0007,-5.0
2.037,0.0037,-0.0113,0.0165,-0.126,-5.0
2.038,-0.012,0.012,0.0195,-0.2513,-5.0
2.039,-0.0278,0.0525,0.0307,-0.1868,-5.0
2.04,-0.0338,0.0922,0.0322,0.0022,-5.0
2.041,-0.0405,0.0855,0.0435,0.0817,-5.0
2.042,-0.0346,0.033,0.0562,0.0682,-5.0
2.043,-0.0188,0.003,0.06,0.0622,-5.0
2.044,-0.0083,-0.0046,0.0502,0.0337,-5.0
2.045,0.0015,-0.0293,0.0382,0.0285,-5.0
2.046,0.006,-0.0353,0.0232,0.0187,-5.0
2.047,0.0105,-0.0413,0.012,-0.006,-5.0
2.048,0.0255,-0.0293,0.006,-0.0181,-5.0
2.049,0.0322,-0.0015,-0.0128,-0.0308,-5.0
2.05,0.0277,0.0082,-0.0158,-0.003,-5.0
2.051,0.0232,0.0217,-0.0158,0.0195,-5.0
2.052,0.0127,0.012,-0.0105,0.036,-5.0
2.053,-0.0023,-0.0195,0.0142,0.0532,-5.0
2.054,-0.024,-0.0405,0.0607,0.0345,-5.0
2.055,-0.0398,-0.0428,0.0832,0.0172,-5.0
2.056,-0.0488,-0.027,0.0465,0.0097,-5.0
2.057,-0.0495,-0.0128,0.0022,0.003,-5.0
2.058,-0.0218,-0.0181,-0.054,0.0015,-5.0
2.059,0.0075,-0.0293,-0.0908,-0.0046,-5.0
2.06,0.027,-0.0368,-0.093,-0.015,-5.0
2.061,0.0352,-0.0315,-0.075,-0.0353,-5.1
2.062,0.0315,-0.0098,-0.0293,-0.0555,-5.3
2.063,0.018,-0.0083,0.0045,-0.027,-5.5
2.064,-0.003,-0.0158,0.0352,-0.012,-5.7
2.065,-0.0053,-0.003,0.057,-0.0091,-5.9
2.066,-0.0046,0.0045,0.0705,0.0045,-6.1
2.067,-0.003,0.012,0.06,-0.0105,-6.3
2.068,0.0022,0.0045,0.0277,-0.0038,-6.4
2.069,0.0052,-0.0165,-0.012,-0.0038,-6.6
2.07,0.0112,-0.0233,-0.063,-0.0008,-6.8
2.071,0.012,-0.0256,-0.078,0.0067,-7.0
2.072,0.021,-0.0248,-0.0833,0.0007,-7.2
2.073,0.0202,-0.0278,-0.0825,0.0067,-7.3
2.074,0.0105,-0.0068,-0.0593,0.0082,-7.5
2.075,0.0037,0.0105,-0.033,0.0097,-7.7
2.076,-0.0181,0.0,-0.0068,0.0052,-7.9
2.077,-0.027,0.009,0.0007,0.0052,-8.1
2.078,-0.024,0.0142,0.0082,0.003,-8.3
2.079,-0.024,0.0097,0.0232,-0.0015,-8.5
2.08,-0.0195,0.0127,0.036,0.0037,-8.7
2.081,-0.015,0.0082,0.0487,0.0052,-8.9
2.082,-0.012,0.0067,0.054,0.0015,-9.0
2.083,-0.0233,0.0075,0.0502,-0.0098,-9.3
2.084,-0.0323,0.012,0.0337,-0.0105,-9.5
2.085,-0.0293,0.018,0.0165,-0.0068,-9.7
2.086,-0.0143,0.0165,0.0,-0.0015,-9.9
2.087,0.0217,0.0172,-0.006,0.0067,-10.1
2.088,0.0532,0.024,-0.0046,0.0082,-10.3
2.089,0.0532,0.0292,-0.0195,0.0052,-10.5
2.09,0.0367,0.0345,-0.0405,0.0022,-10.7
2.091,0.0247,0.0352,-0.063,0.0015,-10.9
2.092,0.0202,0.018,-0.0765,-0.0038,-11.1
2.093,0.015,0.0082,-0.0691,-0.0046,-11.3
2.094,0.0097,0.015,-0.0458,-0.003,-11.5
2.095,0.015,0.0262,-0.0285,-0.0008,-11.7
2.096,0.0045,0.0495,-0.0233,0.0052,-12.0
2.097,-0.021,0.0577,-0.03,0.0082,-12.2
2.098,-0.0458,0.0382,-0.0315,0.0037,-12.4
2.099,-0.0795,0.015,0.0007,0.0015,-12.6
2.1,-0.0818,0.0097,0.0435,0.0075,-12.8
2.101,-0.0533,0.0097,0.0802,0.0082,-12.8
2.102,-0.0023,0.012,0.105,0.0037,-12.9
2.103,0.0547,0.0202,0.1177,-0.0015,-13.0
2.104,0.0862,0.0225,0.1305,0.0007,-13.0
2.105,0.1117,0.018,0.1455,0.0,-13.1
2.106,0.0997,0.0135,0.129,-0.0008,-13.1
2.107,0.048,0.009,0.0825,0.0045,-13.2
2.108,0.0045,0.0067,0.0315,0.006,-13.2
2.109,-0.033,0.0082,-0.0173,0.0052,-13.3
2.11,-0.0473,0.0015,-0.0405,-0.0008,-13.4
2.111,-0.0518,-0.006,-0.057,-0.0083,-13.4
2.112,-0.0608,-0.0023,-0.0533,-0.0105,-13.5
2.113,-0.0585,0.0127,-0.0195,-0.0046,-13.5
2.114,-0.057,0.0352,0.0202,0.0022,-13.6
2.115,-0.045,0.0435,0.048,0.0105,-13.7
2.116,-0.033,0.0307,0.0532,0.0157,-13.7
2.117,-0.0375,0.0067,0.0645,0.0142,-13.8
2.118,-0.042,-0.0158,0.0705,0.0142,-13.8
2.119,-0.0353,-0.024,0.0922,0.0105,-13.9
2.12,-0.0173,-0.0278,0.0997,0.0067,-14.0
2.121,0.0045,-0.0375,0.0645,-0.0083,-13.9
2.122,0.027,-0.0465,0.0285,-0.0256,-13.8
2.123,0.039,-0.0353,-0.0263,-0.027,-13.7
2.124,0.042,-0.027,-0.0645,-0.012,-13.6
2.125,0.0405,-0.0323,-0.0818,-0.0068,-13.5
2.126,0.018,-0.0285,-0.0803,-0.006,-13.5
2.127,-0.0173,-0.0195,-0.054,0.0015,-13.4
2.128,-0.045,-0.0068,-0.0293,-0.0008,-13.3
2.129,-0.066,-0.0038,0.003,-0.0068,-13.2
2.13,-0.0555,-0.003,0.0157,-0.0105,-13.1
2.131,-0.0158,-0.0015,0.033,-0.0015,-13.1
2.132,0.012,0.0045,0.0367,0.0037,-13.0
2.133,0.027,0.0105,0.0127,0.006,-12.9
2.134,0.0345,0.006,-0.0046,0.0082,-12.8
2.135,0.0502,0.003,-0.0488,0.006,-12.7
2.136,0.0517,0.006,-0.0863,0.0105,-12.6
2.137,0.0442,0.0105,-0.1185,0.0135,-12.5
2.138,0.039,0.0067,-0.129,0.012,-12.4
2.139,0.0187,0.0007,-0.105,0.0045,-12.3
2.14,0.0067,-0.0038,-0.0721,-0.0046,-12.2
2.141,-0.0098,-0.012,-0.0263,-0.0105,-12.2
2.142,-0.0256,-0.0128,0.0112,-0.0105,-12.1
2.143,-0.0346,-0.0128,0.0502,-0.0075,-12.0
2.144,-0.0436,-0.0105,0.0592,-0.0046,-11.9
2.145,-0.0346,-0.0091,0.0352,0.0007,-11.9
2.146,-0.0218,-0.0091,0.0232,0.0007,-11.8
2.147,-0.0075,-0.0068,0.0135,0.003,-11.7
2.148,0.0075,-0.0068,0.009,0.003,-11.7
2.149,0.0112,-0.0083,0.0075,0.0015,-11.6
2.15,0.0075,-0.0068,0.003,0.0015,-11.5
2.151,0.0007,-0.0068,-0.0038,0.0007,-11.4
2.152,-0.0075,-0.0075,-0.0053,0.0007,-11.3
2.153,-0.015,-0.006,-0.0068,-0.0023,-11.3
2.154,-0.0143,-0.0046,-0.0038,-0.0046,-11.2
2.155,-0.0046,-0.0053,0.0007,-0.003,-11.1
2.156,0.0097,-0.0046,0.0015,0.0015,-11.1
2.157,0.018,-0.003,0.0007,0.0022,-11.0
2.158,0.0202,-0.0053,-0.003,0.0007,-10.9
2.159,0.0187,-0.0053,-0.0075,-0.0015,-10.8
2.16,0.0112,-0.0068,-0.0181,-0.0075,-10.8
2.161,-0.003,-0.0083,-0.0293,-0.0015,-10.8
2.162,-0.0233,-0.0083,-0.0405,0.0,-10.7
2.163,-0.033,-0.0105,-0.0488,-0.0008,-10.7
2.164,-0.0181,-0.0091,-0.0465,0.003,-10.7
2.165,0.0015,-0.0083,-0.0346,0.0007,-10.7
2.166,0.0217,-0.0083,-0.0143,-0.0023,-10.7
2.167,0.0382,-0.0083,0.0015,-0.003,-10.6
2.168,0.0465,-0.0068,0.0112,-0.0053,-10.6
2.169,0.0555,-0.006,0.0217,-0.0046,-10.6
2.17,0.063,-0.006,0.0262,-0.0015,-10.6
2.171,0.0592,-0.0068,0.0345,-0.0015,-10.6
2.172,0.0277,-0.0091,0.0382,-0.0015,-10.5
2.173,-0.0068,-0.0158,0.0345,-0.0008,-10.5
2.174,-0.0248,-0.0165,0.0382,0.0,-10.5
2.175,-0.0398,-0.0128,0.0405,0.0015,-10.5
2.176,-0.0375,-0.012,0.0412,0.0007,-10.5
2.177,-0.0346,-0.0098,0.039,0.0022,-10.4
2.178,-0.0263,-0.0091,0.0292,0.003,-10.4
2.179,-0.0143,-0.006,0.0157,-0.0023,-10.4
2.18,-0.0128,-0.0046,0.0052,-0.0046,-10.4
2.181,-0.0053,-0.0083,0.003,-0.0038,-10.4
2.182,-0.0038,-0.0098,0.0007,-0.0053,-10.4
2.183,0.0007,-0.0046,0.0007,-0.003,-10.4
2.184,0.0045,-0.0015,0.003,-0.0015,-10.4
2.185,-0.0083,-0.003,0.003,-0.0015,-10.5
2.186,-0.0225,-0.0038,0.0105,-0.0008,-10.5
2.187,-0.024,-0.0038,0.0157,0.0015,-10.5
2.188,-0.0105,-0.003,0.033,0.003,-10.5
2.189,0.0082,-0.0015,0.069,0.0007,-10.6
2.19,0.0315,-0.0038,0.0967,-0.0008,-10.6
2.191,0.0487,-0.0038,0.0855,-0.0053,-10.6
2.192,0.0525,-0.003,0.0457,-0.0023,-10.7
2.193,0.0442,-0.003,-0.0046,0.0,-10.7
2.194,0.0225,-0.0053,-0.063,0.0,-10.7
2.195,0.0022,-0.0075,-0.0998,0.0015,-10.7
2.196,-0.0165,-0.0091,-0.1163,0.0007,-10.8
2.197,-0.0323,-0.0068,-0.1028,0.0015,-10.8
2.198,-0.0413,-0.0053,-0.0743,-0.003,-10.8
2.199,-0.042,-0.0083,-0.0338,-0.0083,-10.8
2.2,-0.0323,-0.0128,0.0105,-0.0083,-10.9
2.201,-0.0256,-0.0181,0.0255,-0.0098,-10.9
2.202,-0.0143,-0.0181,0.0405,-0.0068,-10.9
2.203,-0.0053,-0.0158,0.0367,-0.0053,-10.9
2.204,-0.0015,-0.0143,0.0292,-0.0053,-11.0
2.205,0.003,-0.0091,0.027,-0.0015,-11.0
2.206,0.0045,-0.0098,0.0157,-0.0008,-11.0
2.207,0.0075,-0.0098,0.0142,-0.0008,-11.1
2.208,0.0067,-0.0053,0.009,-0.0008,-11.1
2.209,0.0052,-0.0053,0.009,-0.003,-11.1
2.21,0.0037,-0.0038,0.009,-0.003,-11.2
2.211,0.0015,-0.003,0.012,-0.003,-11.2
2.212,0.0045,0.0045,0.0127,0.0,-11.2
2.213,0.0015,0.012,0.0082,0.0015,-11.3
2.214,-0.0008,0.009,0.0052,0.0007,-11.3
2.215,-0.0023,0.006,0.0015,0.0007,-11.3
2.216,0.0007,0.0052,0.0007,-0.0008,-11.3
2.217,0.0007,0.006,-0.003,0.0007,-11.4
2.218,0.0045,0.009,-0.0046,0.0,-11.4
2.219,0.0052,0.0105,-0.006,0.0007,-11.4
2.22,0.0015,0.0097,-0.0083,0.003,-11.5
2.221,0.0045,0.0097,-0.0075,0.0,-11.5
2.222,0.0022,0.0157,-0.0105,-0.0008,-11.5
2.223,-0.0015,0.0195,-0.0105,0.0,-11.5
2.224,-0.0015,0.021,-0.012,0.0007,-11.5
2.225,-0.0038,0.0195,-0.0105,0.003,-11.5
2.226,-0.0023,0.018,-0.0083,0.0045,-11.5
2.227,-0.0038,0.0135,-0.0113,0.0015,-11.5
2.228,-0.003,0.0015,-0.012,0.0007,-11.5
2.229,-0.0008,-0.003,-0.015,-0.0008,-11.5
2.23,0.0007,0.0052,-0.0195,-0.0015,-11.5
2.231,0.0052,0.0075,-0.0203,0.0007,-11.5
2.232,0.006,0.0082,-0.0165,0.0022,-11.5
2.233,0.0045,0.0157,-0.0091,0.0052,-11.5
2.234,0.003,0.0255,-0.0008,0.006,-11.5
2.235,0.0015,0.042,0.003,0.0022,-11.5
2.236,-0.003,0.054,0.0045,-0.0023,-11.5
2.237,-0.0053,0.0577,0.0067,-0.0015,-11.5
2.238,-0.006,0.0765,0.0082,0.003,-11.5
2.239,-0.006,0.09,0.0105,0.003,-11.5
2.24,-0.0038,0.0742,0.012,0.003,-11.5
2.241,-0.0008,0.0495,0.009,0.0037,-11.5
2.242,0.0,0.0127,0.0082,-0.0008,-11.4
2.243,-0.0015,-0.0173,0.0037,-0.0038,-11.4
2.244,-0.003,-0.021,0.0007,-0.003,-11.4
2.245,-0.006,-0.027,-0.0008,-0.0046,-11.3
2.246,-0.0038,-0.045,-0.0015,-0.0053,-11.3
2.247,-0.003,-0.048,-0.0038,-0.0046,-11.3
2.248,-0.0038,-0.0346,-0.003,-0.0015,-11.3
2.249,0.0,-0.0068,-0.0015,0.0022,-11.3
2.25,-0.0023,0.0142,-0.003,0.0052,-11.3
2.251,-0.0008,0.012,-0.0023,0.006,-11.3
2.252,0.0015,0.0195,-0.003,0.009,-11.2
2.253,-0.0008,0.0097,0.003,0.0082,-11.2
2.254,0.0015,0.0015,0.0082,0.0067,-11.2
2.255,-0.0008,0.0172,0.0067,0.0067,-11.1
2.256,0.0,0.039,0.009,0.0007,-11.1
2.257,0.0007,0.0757,0.0075,-0.003,-11.1
2.258,0.0015,0.078,0.0075,-0.003,-11.1
2.259,0.0007,0.042,0.0105,-0.0038,-11.0
2.26,-0.0015,0.0052,0.0067,-0.0046,-11.0
2.261,-0.0038,-0.042,0.006,-0.0015,-11.0
2.262,-0.0083,-0.0675,0.0007,0.0015,-11.0
2.263,-0.0075,-0.0675,-0.0046,0.003,-11.0
2.264,-0.006,-0.0615,-0.0053,0.0045,-11.0
2.265,-0.0038,-0.0495,-0.0075,0.003,-10.9
2.266,-0.0023,-0.0225,-0.0023,-0.0015,-10.9
2.267,-0.0038,-0.0046,0.0015,-0.0038,-10.9
2.268,0.0,-0.0188,0.0022,-0.0015,-10.9
2.269,-0.0015,-0.0256,0.003,0.0007,-10.9
2.27,-0.0023,-0.0105,0.0022,0.0015,-10.8
2.271,0.0007,-0.003,0.0067,0.0015,-10.8
2.272,-0.0015,0.009,0.0135,0.0015,-10.8
2.273,-0.0008,0.018,0.0187,0.0015,-10.8
2.274,-0.0015,0.0202,0.021,0.0015,-10.8
2.275,-0.0023,0.009,0.0172,0.0007,-10.8
2.276,-0.0008,-0.0091,0.012,0.0007,-10.8
2.277,-0.0008,-0.0165,0.006,0.0007,-10.8
2.278,0.0,-0.0256,0.0015,-0.003,-10.8
2.279,-0.0015,-0.0188,-0.0015,-0.0015,-10.7
2.28,-0.0023,-0.0158,-0.0023,0.0,-10.7
2.281,-0.0053,-0.027,-0.0053,-0.003,-10.7
2.282,-0.0083,-0.0285,-0.0046,-0.0015,-10.7
2.283,-0.003,-0.0143,0.0,-0.0023,-10.7
2.284,-0.003,0.0022,0.003,-0.0015,-10.7
2.285,-0.0015,0.003,0.003,-0.0038,-10.7
2.286,0.0022,0.009,0.003,-0.003,-10.7
2.287,0.0022,0.0285,0.0045,0.0007,-10.7
2.288,0.003,0.0367,0.0052,-0.0008,-10.6
2.289,0.003,0.033,0.0037,-0.0008,-10.6
2.29,0.0037,0.0172,0.0045,0.0007,-10.6
2.291,0.003,0.0067,0.0037,0.0015,-10.6
2.292,-0.0015,0.0045,0.003,0.0007,-10.6
2.293,-0.006,-0.0008,0.0082,0.0015,-10.6
2.294,-0.006,-0.0053,0.0075,0.0022,-10.6
2.295,-0.0046,-0.0091,0.0067,0.0015,-10.6
2.296,-0.0046,-0.0068,0.003,0.0007,-10.6
2.297,-0.0046,-0.0015,0.0022,0.0,-10.6
2.298,-0.0046,-0.0046,0.0015,0.0,-10.5
2.299,-0.0046,-0.0068,-0.0008,-0.003,-10.5
2.3,-0.0053,-0.0068,0.0015,-0.0053,-10.5
2.301,-0.0023,-0.0068,0.0022,-0.0083,-10.5
2.302,-0.003,-0.0068,0.006,-0.0053,-10.5
2.303,-0.0038,-0.0046,0.009,0.0,-10.4
2.304,-0.0038,-0.0046,0.0097,0.0007,-10.4
2.305,-0.0046,-0.0023,0.012,0.003,-10.4
2.306,-0.003,0.0082,0.0105,0.0007,-10.4
2.307,-0.0023,0.0135,0.0105,0.0007,-10.4
2.308,0.0007,0.03,0.0067,0.0052,-10.4
2.309,-0.0008,0.0315,0.0037,-0.0015,-10.3
2.31,0.0015,0.0015,0.003,-0.0038,-10.3
2.311,0.0022,-0.0225,0.006,-0.0008,-10.3
2.312,-0.003,-0.0548,0.003,-0.0046,-10.3
2.313,0.0007,-0.078,0.0045,-0.003,-10.2
2.314,-0.0015,-0.0585,0.003,-0.003,-10.2
2.315,-0.0008,-0.0278,0.0,-0.003,-10.2
2.316,-0.0015,-0.003,0.0022,-0.003,-10.2
2.317,-0.0038,0.0097,0.0015,-0.003,-10.2
2.318,-0.0008,0.006,0.003,0.0007,-10.1
2.319,-0.0038,-0.0023,0.0045,-0.0015,-10.1
2.32,0.0015,-0.006,0.003,-0.0038,-10.1
2.321,0.0037,-0.0015,0.0007,-0.0015,-10.0
2.322,-0.0046,-0.0008,0.0,-0.0015,-10.0
2.323,-0.0195,-0.0008,0.0,0.0015,-10.0
2.324,-0.0375,0.0007,0.0015,0.0022,-9.9
2.325,-0.027,0.0015,0.0052,0.0015,-9.9
2.326,-0.006,0.0,0.0052,0.0007,-9.9
2.327,0.0165,-0.0008,0.0067,-0.0015,-9.9
2.328,0.0427,-0.0015,0.0007,-0.0015,-9.8
2.329,0.0495,-0.003,-0.0015,0.0015,-9.8
2.33,0.048,-0.0023,-0.0015,0.003,-9.7
2.331,0.033,-0.003,-0.0053,0.003,-9.7
2.332,0.0127,-0.0038,-0.0038,0.0022,-9.7
2.333,-0.0053,-0.0075,-0.0083,0.0015,-9.6
2.334,-0.0203,-0.0075,-0.0008,0.0015,-9.6
2.335,-0.0181,-0.0038,0.0007,0.0015,-9.6
2.336,-0.0165,0.0015,0.0015,0.0007,-9.5
2.337,-0.012,0.0105,0.0052,-0.0015,-9.5
2.338,-0.0075,0.0172,-0.0023,-0.0015,-9.5
2.339,-0.0068,0.024,0.0,-0.0008,-9.5
2.34,-0.0023,0.0262,-0.0083,-0.0053,-9.4
2.341,-0.003,0.0225,-0.0091,-0.006,-9.4
2.342,-0.0015,0.0037,-0.0091,-0.0053,-9.3
2.343,0.0007,-0.0173,-0.012,-0.0046,-9.3
2.344,0.0,-0.0346,-0.0046,-0.0008,-9.2
2.345,-0.0015,-0.0436,-0.0053,-0.0008,-9.2
2.346,-0.0015,-0.0263,-0.0053,0.0007,-9.2
2.347,-0.0008,-0.0188,-0.0053,0.0015,-9.1
2.348,-0.0008,-0.0173,0.0,0.0,-9.1
2.349,-0.0015,-0.0068,0.0037,0.003,-9.0
2.35,0.0015,-0.0053,0.0015,0.0015,-9.0
2.351,-0.0008,0.0082,0.0015,0.0015,-9.0
2.352,-0.0023,0.0277,0.0015,0.0022,-8.9
2.353,-0.0008,0.039,0.003,0.0022,-8.9
2.354,-0.003,0.0277,0.0007,0.0015,-8.8
2.355,-0.0053,0.012,0.0007,0.0007,-8.8
2.356,-0.0075,0.0105,0.0007,0.0037,-8.8
2.357,-0.0068,0.012,0.0045,0.003,-8.7
2.358,-0.0083,0.015,0.0037,0.003,-8.7
2.359,-0.0068,0.0127,0.0037,0.0,-8.6
2.36,-0.0046,0.0105,0.0067,-0.0053,-8.6
2.361,-0.0038,-0.003,0.006,-0.0068,-8.6
2.362,-0.0008,-0.0278,0.009,-0.0098,-8.5
2.363,-0.0008,-0.033,0.009,-0.0098,-8.5
2.364,-0.0008,-0.012,0.0075,-0.003,-8.4
2.365,0.0007,0.0045,0.0037,-0.0015,-8.4
2.366,0.003,0.0067,0.0015,-0.003,-8.3
2.367,0.0015,0.0112,0.0067,0.0007,-8.3
2.368,-0.0023,0.0135,0.0045,0.003,-8.2
2.369,-0.0008,0.0187,0.0052,0.0067,-8.2
2.37,-0.0008,0.027,0.0067,0.0067,-8.1
2.371,-0.0015,0.024,0.003,0.0045,-8.1
2.372,-0.0008,0.0217,0.0067,0.0052,-8.1
2.373,0.0,0.012,0.0045,0.0052,-8.0
2.374,-0.0008,0.003,0.006,0.0007,-8.0
2.375,-0.0008,-0.0053,0.0045,-0.006,-7.9
2.376,-0.0023,-0.015,0.0045,-0.0053,-7.9
2.377,-0.0015,-0.0091,0.0067,-0.0015,-7.8
2.378,-0.0008,0.0015,0.0022,0.0007,-7.8
2.379,-0.0015,0.0157,0.003,-0.0008,-7.7
2.38,-0.0015,0.0262,0.0,-0.0008,-7.7
2.381,0.0007,0.0307,-0.0015,0.0007,-7.7
2.382,-0.0015,0.0307,0.0007,-0.0008,-7.6
2.383,-0.0046,0.0255,0.0007,-0.0008,-7.6
2.384,-0.003,0.0217,0.0015,0.0,-7.5
2.385,-0.0015,0.0165,0.0007,0.0007,-7.5
2.386,0.0007,0.018,0.0007,0.0022,-7.4
2.387,0.0007,0.0142,0.0,0.0007,-7.4
2.388,0.0007,0.0105,-0.0015,0.0007,-7.3
2.389,-0.0008,0.0105,0.0007,0.0022,-7.3
2.39,-0.0015,0.0067,-0.0015,0.0007,-7.2
2.391,-0.003,0.0052,-0.0053,0.0,-7.2
2.392,-0.0015,0.0045,-0.003,0.0007,-7.2
2.393,-0.0008,0.003,-0.0023,-0.0008,-7.1
2.394,-0.0008,-0.0008,0.0007,-0.0015,-7.1
2.395,0.0007,0.0007,0.0045,-0.0015,-7.0
2.396,0.003,-0.0008,0.0037,-0.0038,-7.0
2.397,0.0015,-0.0008,0.003,-0.0046,-6.9
2.398,-0.0008,-0.0008,0.0045,-0.003,-6.9
2.399,-0.0008,-0.0038,0.0045,-0.003,-6.8
2.4,-0.0046,-0.003,0.0052,-0.0015,-6.8
2.401,-0.0053,-0.0053,0.0052,-0.0008,-6.8
2.402,-0.003,-0.006,0.006,0.0015,-6.7
2.403,-0.003,-0.0038,0.0045,0.0007,-6.7
2.404,0.0007,-0.003,0.0022,0.0,-6.6
2.405,0.0015,-0.003,0.0015,0.0015,-6.6
2.406,-0.0008,-0.0038,0.003,-0.0015,-6.6
2.407,0.003,-0.003,0.0045,-0.0015,-6.5
2.408,0.003,-0.0015,0.0037,-0.0015,-6.5
2.409,0.0015,-0.0046,0.0067,-0.0008,-6.4
2.41,0.0022,-0.0068,0.006,0.0,-6.4
2.411,0.0,-0.0105,0.0075,-0.0015,-6.3
2.412,0.0015,-0.0158,0.0082,0.0,-6.3
2.413,0.003,-0.0181,0.0075,0.0,-6.3
2.414,-0.0008,-0.0181,0.006,0.0,-6.2
2.415,0.0007,-0.0173,0.0052,0.0007,-6.2
2.416,0.0037,-0.0158,0.0067,0.0007,-6.2
2.417,0.0022,-0.0158,0.0045,0.0007,-6.1
2.418,0.0,-0.0158,0.0052,-0.0008,-6.1
2.419,-0.0008,-0.0128,0.006,0.0007,-6.0
2.42,-0.0015,-0.012,0.0067,-0.0015,-6.0
2.421,-0.003,-0.0083,0.0067,-0.003,-5.9
2.422,-0.0015,-0.0015,0.003,0.0007,-5.9
2.423,0.0007,0.0007,0.0045,0.0022,-5.9
2.424,0.0022,0.024,0.0045,0.0052,-5.9
2.425,0.003,0.051,0.0045,0.003,-5.9
2.426,0.0007,0.036,0.0022,-0.0015,-5.8
2.427,-0.003,0.0127,0.0015,-0.0008,-5.8
2.428,-0.003,-0.015,0.0022,-0.003,-5.8
2.429,-0.0015,-0.0495,0.0007,-0.0008,-5.7
2.43,-0.0008,-0.0713,0.003,0.0015,-5.7
2.431,0.0007,-0.0893,-0.0023,-0.0008,-5.7
2.432,0.0015,-0.0668,-0.003,-0.0008,-5.6
2.433,-0.0008,-0.021,0.0015,-0.0015,-5.6
2.434,-0.0015,-0.0068,-0.0008,-0.003,-5.6
2.435,0.0,-0.0091,0.0007,-0.0068,-5.5
2.436,-0.0008,-0.0105,-0.003,-0.0038,-5.5
2.437,-0.0015,-0.0158,-0.0053,0.0052,-5.5
2.438,0.0015,-0.0195,-0.0068,0.0007,-5.4
2.439,0.0007,-0.0181,-0.0083,0.0015,-5.4
2.44,0.0022,-0.0091,-0.0083,0.0,-5.4
2.441,0.003,0.0,-0.012,-0.006,-5.4
2.442,-0.0008,0.0022,-0.0075,-0.0038,-5.4
2.443,-0.0008,0.0,-0.006,-0.0038,-5.3
2.444,0.0007,-0.0128,-0.0046,0.0,-5.3
2.445,0.0007,-0.0181,-0.0023,0.0022,-5.3
2.446,0.0,-0.015,-0.003,0.0022,-5.2
2.447,-0.0008,-0.0158,0.0015,0.0037,-5.2
2.448,-0.0015,-0.0135,0.0,0.0015,-5.2
2.449,0.0,-0.0113,0.0015,0.0015,-5.2
2.45,0.003,0.0007,0.003,-0.0008,-5.1
2.451,0.0007,0.0105,0.0022,-0.0068,-5.1
2.452,-0.0008,0.0127,0.0045,-0.0046,-5.1
2.453,-0.0015,0.0195,0.0022,0.0,-5.0
2.454,-0.0046,0.0157,0.0052,0.0007,-5.0
2.455,-0.0053,0.0022,0.0022,0.0007,-5.0
2.456,-0.0046,-0.0203,-0.0008,-0.0015,-5.0
2.457,0.0007,-0.0405,-0.0023,0.0015,-5.0
2.458,0.0007,-0.027,-0.0046,0.003,-4.9
2.459,0.0015,-0.0075,-0.003,0.003,-4.9
2.46,-0.0008,-0.006,-0.0083,0.0015,-4.9
2.461,0.0,-0.0015,-0.0038,0.0015,-4.9
2.462,0.0015,-0.0015,0.0,0.0015,-4.8
2.463,-0.0015,-0.0015,0.0,0.0,-4.8
2.464,0.0007,0.0015,0.0037,-0.0008,-4.8
2.465,-0.0023,0.0045,0.0015,-0.0008,-4.8
2.466,-0.0023,0.012,0.0052,0.0007,-4.8
2.467,-0.0015,0.0232,0.003,0.0022,-4.8
2.468,-0.0053,0.0255,0.0007,0.003,-4.7
2.469,-0.0015,0.0165,0.0015,0.0007,-4.7
2.47,-0.0008,0.0082,-0.0046,-0.003,-4.7
2.471,0.0007,0.0007,-0.0015,-0.0038,-4.7
2.472,0.0015,0.0015,-0.0046,-0.0015,-4.7
2.473,0.0007,0.0067,-0.0038,0.0007,-4.6
2.474,0.0015,0.009,0.0007,0.0007,-4.6
2.475,0.0,0.0217,-0.0008,0.0015,-4.6
2.476,0.0,0.0322,0.0052,-0.0015,-4.6
2.477,-0.0015,0.033,0.0045,-0.0023,-4.6
2.478,0.0,0.0345,0.0082,-0.0008,-4.6
2.479,0.0022,0.0367,0.006,0.0015,-4.5
2.48,0.0015,0.0435,0.003,0.0015,-4.5
2.481,0.0052,0.0495,0.0067,0.0007,-4.5
2.482,0.0007,0.0465,0.0052,0.0015,-4.5
2.483,-0.0023,0.0382,0.0067,-0.0008,-4.5
2.484,-0.0015,0.024,0.0037,0.0,-4.5
2.485,-0.0015,0.0112,0.0022,0.0007,-4.5
2.486,-0.0008,-0.0008,-0.0008,-0.0015,-4.5
2.487,-0.0015,-0.0173,-0.003,-0.0023,-4.5
2.488,-0.0008,-0.0158,-0.003,-0.0008,-4.5
2.489,-0.003,0.0082,-0.0068,0.0,-4.4
2.49,-0.0046,0.0187,-0.0008,0.003,-4.4
2.491,-0.0008,0.0157,-0.0008,0.0052,-4.4
2.492,-0.0008,0.0135,0.0007,0.0045,-4.4
2.493,0.0015,-0.0008,-0.0008,0.003,-4.4
2.494,0.0015,-0.0203,-0.0046,-0.0008,-4.4
2.495,0.0007,-0.0405,-0.0023,-0.0046,-4.3
2.496,0.0015,-0.0465,-0.0053,-0.0046,-4.3
2.497,0.0,-0.024,-0.0038,-0.0053,-4.3
2.498,-0.0008,-0.0083,-0.0015,-0.003,-4.3
2.499,-0.0015,-0.0083,0.0,-0.0008,-4.3
2.5,0.0,-0.0053,0.0015,0.0007,-4.3
2.501,0.0015,-0.0046,0.0,0.0007,-4.3
2.502,-0.0008,-0.0023,0.003,-0.0015,-4.3
2.503,0.0015,0.003,0.006,-0.0015,-4.2
2.504,-0.0015,0.0037,0.0082,-0.003,-4.2
2.505,-0.0038,0.0015,0.0105,-0.0023,-4.2
2.506,0.0,-0.003,0.0097,0.0,-4.2
2.507,-0.0008,-0.0075,0.0067,0.0015,-4.2
2.508,0.0015,-0.0091,0.0067,0.0022,-4.2
2.509,-0.0008,-0.0068,0.0067,0.0015,-4.2
2.51,0.0,-0.0083,0.0075,0.0015,-4.1
2.511,0.0007,-0.0083,0.0082,0.0015,-4.1
2.512,-0.0046,-0.0046,0.0045,-0.0008,-4.1
2.513,-0.0015,0.0,0.0045,-0.003,-4.1
2.514,-0.0046,0.0,0.0007,-0.0068,-4.1
2.515,-0.0046,-0.006,0.0015,-0.0053,-4.1
2.516,0.0,-0.0083,0.0052,-0.003,-4.1
2.517,-0.0015,-0.012,0.0052,-0.003,-4.1
2.518,-0.0008,-0.0128,0.009,-0.0008,-4.1
2.519,0.0015,-0.012,0.009,0.0015,-4.1
2.52,0.0045,-0.0105,0.009,0.0037,-4.1
2.521,0.0045,-0.0091,0.009,0.003,-4.1
2.522,0.0045,-0.0091,0.0082,0.0007,-4.1
2.523,0.0022,-0.0083,0.0067,0.0015,-4.1
2.524,-0.0023,-0.0053,0.003,0.0015,-4.1
2.525,-0.003,-0.0008,0.0045,0.0007,-4.0
2.526,-0.003,0.0007,0.0052,0.0022,-4.0
2.527,-0.003,0.0007,0.0052,0.0007,-4.0
2.528,-0.0023,0.0015,0.003,-0.0008,-4.0
2.529,-0.0046,0.0,0.0,0.0,-4.0
2.53,-0.0038,-0.0068,-0.0008,-0.0008,-4.0
2.531,-0.003,-0.0113,0.0,-0.0008,-4.0
2.532,0.0,-0.0105,0.0022,0.0007,-4.0
2.533,0.0015,-0.0046,0.0007,0.0015,-4.0
2.534,0.0015,0.0082,-0.0008,-0.0008,-4.0
2.535,0.0015,0.018,-0.0008,-0.0015,-4.0
2.536,0.0,0.0232,0.0007,0.0015,-4.0
2.537,-0.0015,0.0262,-0.0008,0.0007,-4.0
2.538,-0.0023,0.024,-0.0008,-0.0015,-4.0
2.539,-0.0046,0.0195,-0.0008,-0.0008,-4.0
2.54,-0.0053,0.0157,-0.003,-0.0015,-4.0
2.541,-0.0038,0.0142,-0.0023,-0.0008,-4.0
2.542,-0.003,0.0127,-0.003,0.0007,-3.9
2.543,-0.0038,0.009,-0.0046,-0.0008,-3.9
2.544,-0.0023,0.0082,-0.006,0.0,-3.9
2.545,-0.0046,0.0105,-0.0053,0.0,-3.9
2.546,-0.0046,0.0142,-0.003,-0.0015,-3.9
2.547,-0.0023,0.0195,-0.0046,-0.0008,-3.9
2.548,-0.0008,0.021,-0.0053,-0.0023,-3.9
2.549,-0.0008,0.0127,-0.0083,-0.0015,-3.8
2.55,0.0,-0.003,-0.0091,0.0007,-3.8
2.551,0.0045,-0.0083,-0.0105,-0.0008,-3.8
2.552,0.0045,0.006,-0.0128,-0.0015,-3.8
2.553,0.0045,0.0157,-0.015,-0.0038,-3.8
2.554,0.0022,0.0157,-0.0143,-0.003,-3.8
2.555,-0.0008,0.0142,-0.0135,-0.0008,-3.7
2.556,0.0007,0.0112,-0.0158,-0.0015,-3.7
2.557,-0.0008,0.0112,-0.0091,-0.003,-3.7
2.558,-0.0023,0.0112,-0.0083,-0.003,-3.7
2.559,-0.0038,0.009,-0.0068,0.0,-3.7
2.56,-0.0046,0.0097,-0.0046,0.0015,-3.7
2.561,-0.0075,0.0097,-0.0053,0.0045,-3.7
2.562,-0.006,0.0105,-0.0015,0.0052,-3.7
2.563,-0.003,0.0112,0.0015,0.0045,-3.6
2.564,-0.0046,0.0082,0.0037,0.0022,-3.6
2.565,-0.0008,0.0067,0.0045,-0.0008,-3.6
2.566,-0.0008,0.0067,0.006,-0.003,-3.6
2.567,-0.0015,0.006,0.0045,-0.0015,-3.6
2.568,0.0007,0.003,0.0037,0.0,-3.6
2.569,-0.0046,0.0007,0.006,0.0,-3.6
2.57,-0.0038,-0.0023,0.0067,0.0,-3.6
2.571,-0.0015,-0.0046,0.0082,0.0,-3.6
2.572,-0.0023,-0.0068,0.0105,-0.0015,-3.6
2.573,-0.0015,-0.0075,0.0105,-0.003,-3.6
2.574,-0.0008,-0.0091,0.006,-0.0015,-3.6
2.575,0.0,-0.0143,0.0037,-0.0023,-3.6
2.576,-0.0008,-0.015,0.0022,0.0007,-3.6
2.577,0.0007,-0.0158,0.0022,0.003,-3.6
2.578,-0.0015,-0.012,0.0022,0.0015,-3.5
2.579,-0.003,-0.0046,0.0007,0.003,-3.5
2.58,-0.0023,-0.003,0.0015,0.0022,-3.5
2.581,-0.003,-0.0075,0.0,0.0052,-3.5
2.582,-0.0023,-0.012,-0.0015,0.0052,-3.5
2.583,-0.0008,-0.0105,0.003,0.0,-3.5
2.584,-0.0015,-0.0008,0.0037,-0.003,-3.5
2.585,0.0015,0.0,0.003,-0.0015,-3.5
2.586,0.0015,0.0045,0.003,-0.0008,-3.4
2.587,0.0007,0.018,0.0007,-0.0046,-3.4
2.588,0.003,0.012,0.003,-0.0128,-3.4
2.589,0.0007,0.0015,0.0045,-0.0128,-3.4
2.59,0.0007,0.0007,0.0045,-0.0083,-3.4
2.591,0.0007,-0.0075,0.006,-0.0046,-3.4
2.592,-0.0015,-0.0091,0.0082,-0.0008,-3.4
2.593,0.0,-0.0091,0.009,0.0,-3.4
2.594,0.0007,-0.0105,0.0082,0.0007,-3.4
2.595,0.0037,-0.006,0.0067,0.0015,-3.3
2.596,0.003,-0.0008,0.0037,0.003,-3.3
2.597,0.003,0.003,-0.0015,0.0052,-3.3
2.598,0.0015,-0.003,0.0007,0.0045,-3.3
2.599,-0.0046,-0.0068,0.0,0.003,-3.3
2.6,-0.0046,-0.0135,-0.003,0.0022,-3.3
2.601,-0.003,-0.0181,0.0007,0.006,-3.3
2.602,-0.0015,-0.0188,0.0007,0.0007,-3.3
2.603,-0.0008,-0.0263,0.0007,-0.0068,-3.3
2.604,-0.0015,-0.03,0.0015,-0.0105,-3.3
2.605,-0.0008,-0.027,0.0007,-0.0075,-3.3
2.606,-0.0008,-0.0165,-0.0008,0.0007,-3.3
2.607,0.0007,-0.0046,-0.0015,0.003,-3.3
2.608,-0.0038,0.0052,-0.0015,0.0052,-3.3
2.609,-0.0038,0.0067,0.0007,0.0052,-3.3
2.61,-0.003,0.0052,0.0007,0.0007,-3.3
2.611,-0.0053,0.0112,0.0015,-0.0008,-3.3
2.612,-0.0008,0.0067,0.0007,0.0,-3.3
2.613,0.0007,-0.0083,-0.0015,0.0007,-3.3
2.614,0.0015,-0.0225,-0.0008,0.0015,-3.3
2.615,0.003,-0.0285,0.0022,0.0022,-3.3
2.616,0.0007,-0.0308,0.0052,0.0015,-3.3
2.617,0.0015,-0.0375,0.0052,0.0007,-3.3
2.618,-0.0008,-0.021,0.0052,0.0015,-3.3
2.619,0.0015,-0.0083,0.0052,-0.0008,-3.3
2.62,-0.003,-0.0053,0.0007,-0.003,-3.3
2.621,-0.0068,0.0127,-0.0015,-0.0023,-3.3
2.622,-0.0053,0.012,0.0,-0.006,-3.3
2.623,-0.0083,0.0067,0.0,-0.0068,-3.3
2.624,-0.0023,0.0045,0.0007,-0.0023,-3.3
2.625,-0.0015,0.0015,0.0045,-0.0015,-3.3
2.626,-0.0015,0.0052,0.0067,-0.0015,-3.3
2.627,0.0022,0.0045,0.0082,0.0015,-3.3
2.628,0.0015,0.0067,0.0067,0.003,-3.3
2.629,0.0045,0.009,0.0052,0.0045,-3.3
2.63,0.0022,0.012,0.0045,0.003,-3.3
2.631,-0.0008,0.0075,0.0022,0.0,-3.3
2.632,-0.0008,0.003,0.0037,0.0015,-3.3
2.633,-0.0038,0.0052,0.0067,0.0,-3.3
2.634,-0.0008,0.0187,0.0082,0.0,-3.3
2.635,-0.003,0.03,0.009,-0.0015,-3.3
2.636,-0.003,0.0202,0.009,-0.0023,-3.3
2.637,0.0,0.012,0.0067,0.0,-3.3
2.638,-0.0008,-0.0015,0.0067,0.0022,-3.3
2.639,0.0007,-0.0203,0.0052,0.003,-3.3
2.64,0.0007,-0.0256,0.0015,0.0037,-3.4
2.641,-0.0008,-0.0346,0.0022,0.0045,-3.4
2.642,0.0015,-0.0293,0.0052,0.0,-3.4
2.643,-0.0008,-0.0128,0.0075,-0.0015,-3.4
2.644,-0.0015,0.0,0.006,-0.0015,-3.4
2.645,-0.0008,0.0082,0.0052,-0.003,-3.4
2.646,0.0007,0.009,0.0067,-0.0008,-3.4
2.647,0.0007,0.0127,0.0067,-0.0008,-3.4
2.648,-0.0015,0.0135,0.0082,-0.0038,-3.4
2.649,0.0007,0.0082,0.0067,-0.0046,-3.5
2.65,-0.0008,0.0067,0.003,-0.0023,-3.5
2.651,-0.0053,0.0082,0.003,-0.0008,-3.5
2.652,-0.0053,0.0165,0.003,0.0007,-3.5
2.653,-0.0068,0.021,0.0052,0.0022,-3.5
2.654,-0.0053,0.0195,0.0075,0.0015,-3.5
2.655,-0.0046,0.012,0.0075,0.0007,-3.6
2.656,-0.003,0.0,0.009,0.0,-3.6
2.657,-0.0015,-0.015,0.0105,-0.003,-3.6
2.658,-0.0023,-0.0263,0.0105,-0.0038,-3.6
2.659,-0.0008,-0.0181,0.012,-0.0015,-3.6
2.66,0.0007,-0.0091,0.012,-0.0015,-3.6
2.661,0.0,-0.0098,0.0075,-0.0023,-3.6
2.662,0.0007,-0.003,0.0052,-0.0008,-3.6
2.663,-0.0015,0.0007,0.003,-0.0008,-3.7
2.664,-0.0038,0.006,0.0022,-0.0015,-3.7
2.665,-0.003,0.012,0.0082,0.0,-3.7
2.666,-0.0046,0.009,0.009,0.0007,-3.7
2.667,-0.0046,-0.0046,0.0135,0.003,-3.8
2.668,-0.003,-0.0308,0.0127,0.0037,-3.8
2.669,-0.0046,-0.0346,0.0127,0.0037,-3.8
2.67,-0.003,-0.0233,0.0157,0.003,-3.9
2.671,-0.0008,-0.0143,0.0142,-0.0023,-3.9
2.672,0.0007,-0.0075,0.0157,-0.0046,-3.9
2.673,0.0007,-0.012,0.0105,-0.0038,-3.9
2.674,-0.0008,-0.0083,0.009,-0.0023,-4.0
2.675,0.0007,-0.0053,0.0082,-0.0008,-4.0
2.676,-0.0015,-0.0068,0.0037,0.0,-4.0
2.677,-0.0023,-0.0038,0.0075,0.0015,-4.0
2.678,0.0,-0.0068,0.0052,0.0037,-4.1
2.679,-0.0015,-0.0113,0.0045,0.0022,-4.1
2.68,0.003,-0.0181,0.0082,0.003,-4.1
2.681,0.003,-0.0218,0.006,0.0067,-4.1
2.682,0.0015,-0.012,0.0075,0.0045,-4.1
2.683,0.0037,0.0052,0.0052,-0.0015,-4.2
2.684,-0.0008,0.0232,0.003,-0.0143,-4.2
2.685,-0.0046,0.036,0.003,-0.0165,-4.3
2.686,-0.0068,0.0352,-0.0015,-0.0098,-4.3
2.687,-0.0068,0.0195,0.0,-0.0046,-4.3
2.688,-0.0046,-0.0128,-0.0008,-0.0023,-4.4
2.689,-0.0015,-0.0346,0.0007,-0.0008,-4.4
2.69,-0.0008,-0.0308,0.003,0.006,-4.5
2.691,-0.0023,-0.0405,0.0015,0.0067,-4.5
2.692,0.0015,-0.0428,0.0052,0.0052,-4.5
2.693,0.0052,-0.027,0.0067,0.0045,-4.5
2.694,0.0067,-0.012,0.0052,0.003,-4.5
2.695,0.006,0.0052,0.0007,0.0045,-4.6
2.696,0.0037,0.0165,-0.0015,0.0045,-4.6
2.697,0.003,0.0217,-0.0015,-0.0023,-4.7
2.698,-0.0015,0.018,-0.0023,-0.0068,-4.7
2.699,-0.003,0.012,0.0,-0.0038,-4.7
2.7,-0.0015,0.0075,-0.0015,0.0,-4.8
2.701,-0.0015,0.0,-0.003,0.0045,-4.8
2.702,0.0015,-0.0015,-0.003,0.0037,-4.9
2.703,0.003,-0.0046,-0.0053,0.0015,-4.9
2.704,0.0007,-0.0105,-0.0038,-0.0008,-5.0
2.705,-0.003,-0.0135,-0.0068,-0.0015,-5.0
2.706,-0.0015,-0.003,-0.0083,-0.0015,-5.0
2.707,-0.0046,0.0075,-0.0091,-0.0053,-5.1
2.708,-0.0038,0.009,-0.0105,-0.0046,-5.1
2.709,-0.0008,0.0127,-0.0098,-0.0015,-5.2
2.71,0.0,0.0105,-0.0105,-0.0015,-5.2
2.711,0.0015,0.0097,-0.012,0.0007,-5.3
2.712,0.0045,0.0127,-0.0113,0.003,-5.3
2.713,0.0052,0.0127,-0.012,0.0037,-5.4
2.714,0.0052,0.0172,-0.0091,0.0052,-5.4
2.715,0.0037,0.0195,-0.0075,0.0052,-5.4
2.716,0.0,0.0232,-0.0083,0.003,-5.5
2.717,-0.0008,0.0202,-0.0075,0.0007,-5.5
2.718,-0.0015,0.0157,-0.0068,0.0015,-5.6
2.719,-0.0023,0.0157,-0.0068,0.0015,-5.6
2.72,0.0,0.015,-0.0053,0.0007,-5.7
2.721,0.0,0.0187,-0.003,-0.0008,-5.7
2.722,-0.0008,0.0195,-0.0015,-0.0008,-5.8
2.723,-0.0008,0.024,-0.0046,-0.0023,-5.9
2.724,0.0007,0.0255,-0.0046,-0.003,-5.9
2.725,0.0,0.0255,-0.0046,-0.003,-5.9
2.726,0.0007,0.0255,-0.006,-0.0023,-6.0
2.727,0.0,0.0277,-0.0053,-0.0008,-6.1
2.728,-0.0053,0.0315,-0.006,0.003,-6.1
2.729,-0.0038,0.0315,-0.0105,0.006,-6.2
2.73,-0.0046,0.039,-0.0128,0.0037,-6.3
2.731,-0.0015,0.0532,-0.0128,0.0015,-6.3
2.732,0.003,0.051,-0.0105,-0.003,-6.3
2.733,-0.0015,0.03,-0.0105,-0.0105,-6.4
2.734,-0.0008,0.0015,-0.0083,-0.0128,-6.4
2.735,-0.0053,-0.0195,-0.006,-0.0098,-6.5
2.736,-0.0068,-0.0278,-0.0083,-0.0068,-6.6
2.737,0.0007,-0.0578,-0.0053,-0.0068,-6.6
2.738,0.0022,-0.0765,-0.006,-0.0068,-6.7
2.739,0.0007,-0.039,-0.0046,-0.006,-6.8
2.74,0.0,-0.0038,-0.003,-0.0008,-6.8
2.741,0.0,0.0127,-0.003,0.0015,-6.9
2.742,-0.003,0.0105,-0.0053,0.003,-6.9
2.743,-0.0023,-0.0008,-0.0105,0.0052,-7.0
2.744,-0.0038,0.0082,-0.0091,0.0037,-7.1
2.745,-0.006,0.0195,-0.0128,0.0007,-7.2
2.746,-0.0038,0.0165,-0.012,-0.003,-7.2
2.747,-0.003,0.0075,-0.0083,-0.0046,-7.3
2.748,0.0007,0.003,-0.0105,-0.0015,-7.4
2.749,-0.0008,-0.0038,-0.0053,-0.0015,-7.4
2.75,-0.0008,-0.012,-0.0053,0.0015,-7.5
2.751,0.0007,-0.0143,-0.0046,0.003,-7.6
2.752,-0.0015,-0.0113,-0.0008,0.0015,-7.7
2.753,0.0015,-0.0091,-0.0015,0.0007,-7.7
2.754,0.0007,-0.0075,0.0007,-0.0008,-7.8
2.755,0.003,-0.003,0.0007,0.0015,-7.9
2.756,0.003,0.0067,0.0007,0.0052,-8.0
2.757,0.0015,0.012,0.0015,0.006,-8.0
2.758,0.003,0.0142,0.0,0.0022,-8.1
2.759,-0.0008,0.0067,0.0007,-0.003,-8.1
2.76,0.003,-0.003,0.0015,-0.003,-8.3
2.761,0.0022,0.0075,0.0052,-0.003,-8.3
2.762,0.0015,0.0232,0.0082,-0.0023,-8.4
2.763,0.0052,0.03,0.009,-0.0015,-8.5
2.764,0.0022,0.027,0.009,-0.0046,-8.6
2.765,0.0015,0.0195,0.006,-0.0046,-8.6
2.766,-0.003,0.0105,0.0037,-0.0046,-8.7
2.767,-0.0038,-0.0083,0.0037,-0.0015,-8.8
2.768,-0.0068,-0.012,0.0052,0.0037,-8.9
2.769,-0.0091,-0.0091,0.0082,0.0052,-9.0
2.77,-0.0068,-0.0203,0.0082,0.0015,-9.0
2.771,-0.0083,-0.0278,0.0097,-0.003,-9.1
2.772,-0.0053,-0.0495,0.0082,0.0007,-9.2
2.773,-0.0046,-0.0638,0.0082,0.0007,-9.3
2.774,-0.0046,-0.0383,0.0097,-0.0015,-9.4
2.775,0.0007,0.0067,0.012,-0.0053,-9.5
2.776,0.0007,0.033,0.018,-0.012,-9.5
2.777,0.0007,0.0232,0.0195,-0.0091,-9.6
2.778,-0.0008,-0.0015,0.0217,-0.003,-9.7
2.779,-0.003,-0.0353,0.0225,0.0015,-9.8
2.78,-0.0053,-0.057,0.0202,0.003,-9.9
2.781,-0.0038,-0.048,0.0202,0.0052,-9.9
2.782,0.0007,0.009,0.0187,0.003,-10.0
2.783,0.0015,0.0787,0.0165,0.0007,-10.1
2.784,0.0022,0.0795,0.0157,0.003,-10.2
2.785,0.0015,0.033,0.0195,0.0082,-10.4
2.786,0.0007,-0.0225,0.018,0.003,-10.4
2.787,0.0007,-0.0765,0.0142,-0.0105,-10.5
2.788,-0.0023,-0.1006,0.009,-0.0046,-10.6
2.789,-0.0015,-0.0983,0.0037,0.0067,-10.7
2.79,-0.0015,-0.0765,0.0052,0.003,-10.8
2.791,-0.0068,-0.0091,0.0045,0.0037,-10.9
2.792,-0.0083,0.0337,0.0052,0.009,-11.0
2.793,-0.0075,0.0202,0.003,0.0127,-11.1
2.794,-0.0083,0.0382,-0.0008,0.0127,-11.2
2.795,-0.0083,0.0607,0.0007,0.0067,-11.3
2.796,-0.0046,0.063,-0.0008,-0.0068,-11.4
2.797,-0.0046,0.0675,-0.0008,-0.012,-11.5
2.798,-0.003,0.0645,-0.0038,-0.0091,-11.6
2.799,0.0,0.0622,-0.0068,-0.0083,-11.7
2.8,0.0007,0.0802,-0.0068,-0.003,-11.8
2.801,0.0022,0.0892,-0.0053,-0.0015,-11.9
2.802,-0.0015,0.0397,-0.0015,-0.0023,-12.0
2.803,-0.0008,-0.0383,-0.0008,-0.0075,-12.1
2.804,-0.0015,-0.1088,-0.0008,-0.0083,-12.2
2.805,-0.0015,-0.1193,0.0007,0.0007,-12.3
2.806,0.0007,-0.0825,0.0007,-0.0008,-12.5
2.807,-0.0008,-0.078,0.0,0.0037,-12.6
2.808,0.0022,-0.0578,0.0015,0.006,-12.7
2.809,0.0022,-0.054,-0.0008,-0.0015,-12.8
2.81,-0.0008,-0.0555,-0.0008,-0.0008,-13.0
2.811,0.0007,-0.0308,0.0007,-0.0008,-13.1
2.812,-0.0008,-0.0285,-0.0008,-0.0008,-13.2
2.813,0.0,-0.012,0.0007,-0.0008,-13.3
2.814,0.0,-0.0173,-0.0008,0.0007,-13.4
2.815,-0.003,-0.0046,-0.0015,0.0015,-13.5
2.816,-0.003,0.0165,0.0007,0.0045,-13.6
2.817,-0.0038,0.0045,0.0007,0.006,-13.8
2.818,-0.0015,0.0022,0.003,0.006,-13.9
2.819,-0.0023,0.0015,0.0022,0.0045,-14.0
2.82,-0.003,-0.006,0.003,-0.003,-14.2
2.821,-0.0008,-0.0128,0.0075,-0.0068,-14.3
2.822,-0.0023,-0.0046,0.009,-0.0046,-14.4
2.823,0.0015,0.003,0.009,0.0052,-14.5
2.824,0.0037,0.0127,0.009,0.0082,-14.7
2.825,0.003,0.0412,0.009,0.0052,-14.8
2.826,0.0007,0.072,0.003,0.0052,-14.9
2.827,-0.003,0.087,-0.0046,-0.0046,-15.1
2.828,-0.003,0.0592,-0.006,-0.0113,-15.2
2.829,-0.0046,-0.0053,-0.012,-0.012,-15.3
2.83,-0.0046,-0.0353,-0.0098,-0.0083,-15.5
2.831,-0.003,-0.0518,-0.0068,-0.0046,-15.6
2.832,-0.0015,-0.0615,-0.006,-0.0015,-15.7
2.833,0.0015,-0.0533,-0.0015,0.0022,-15.8
2.834,0.0007,-0.0675,-0.0015,0.003,-16.0
2.835,0.003,-0.042,-0.0008,0.0075,-16.1
2.836,0.003,-0.003,-0.0046,0.0075,-16.2
2.837,0.003,0.021,-0.0008,0.0045,-16.4
2.838,0.0037,0.0652,-0.0015,0.0037,-16.5
2.839,-0.0023,0.0892,-0.0023,0.003,-16.7
2.84,-0.0046,0.096,-0.0008,0.003,-16.8
2.841,-0.0053,0.0382,-0.0083,0.0015,-16.9
2.842,-0.003,-0.0593,-0.006,0.0045,-17.1
2.843,0.0015,-0.0691,-0.0083,0.006,-17.2
2.844,-0.0008,-0.0555,-0.0053,0.006,-17.4
2.845,0.0015,-0.063,-0.0038,0.0105,-17.6
2.846,0.0015,-0.0518,-0.0038,0.0105,-17.7
2.847,0.0007,-0.027,0.003,0.0052,-17.9
2.848,0.0007,0.0195,-0.0015,-0.0046,-18.0
2.849,-0.0008,0.018,-0.0015,-0.0091,-18.2
2.85,-0.003,-0.0128,-0.0068,-0.0091,-18.3
2.851,-0.0038,0.012,-0.012,-0.0046,-18.5
2.852,-0.0008,0.0705,-0.0091,0.0045,-18.6
2.853,-0.0008,0.0952,-0.0098,0.003,-18.8
2.854,0.0015,0.0705,-0.003,0.0052,-18.9
2.855,0.0007,0.057,-0.0008,0.006,-19.1
2.856,0.0015,0.0495,0.0022,0.0067,-19.2
2.857,0.0045,-0.0083,0.006,0.0082,-19.4
2.858,0.0045,-0.0818,0.0052,0.0067,-19.5
2.859,0.0037,-0.1185,0.0127,0.0,-19.7
2.86,-0.0008,-0.1043,0.0097,-0.0083,-19.9
2.861,-0.0038,-0.0256,0.0105,-0.0083,-20.0
2.862,-0.003,-0.0068,0.0127,-0.0046,-20.2
2.863,-0.0038,-0.0128,0.0112,-0.0083,-20.3
2.864,-0.0008,0.0112,0.0142,-0.0173,-20.5
2.865,0.0,0.0045,0.0142,-0.0173,-20.7
2.866,-0.0015,0.0532,0.0127,-0.0165,-20.8
2.867,-0.0008,0.0855,0.0112,-0.015,-21.0
2.868,-0.0023,0.0817,0.0105,-0.012,-21.2
2.869,-0.003,0.0742,0.0157,-0.0158,-21.3
2.87,-0.0053,0.0465,0.0135,-0.0173,-21.5
2.871,-0.0083,0.0397,0.0142,-0.012,-21.6
2.872,-0.0053,0.0157,0.0165,0.0015,-21.8
2.873,0.0,0.0262,0.0195,0.0067,-22.0
2.874,0.0052,0.0375,0.021,0.0022,-22.1
2.875,0.003,0.0202,0.018,0.0052,-22.3
2.876,0.003,0.0367,0.0255,0.0082,-22.5
2.877,0.0007,0.048,0.024,0.006,-22.6
2.878,-0.0046,0.0337,0.024,0.009,-22.8
2.879,-0.0046,0.018,0.0255,0.0097,-23.0
2.88,-0.0046,0.0165,0.0247,0.009,-23.2
2.881,-0.003,0.024,0.03,0.0082,-23.4
2.882,0.0022,0.012,0.0292,0.0052,-23.5
2.883,0.0007,-0.0083,0.0277,0.0052,-23.8
2.884,-0.0008,0.009,0.0255,0.006,-23.9
2.885,0.0007,0.0172,0.0255,0.0067,-24.2
2.886,0.0007,-0.0023,0.0255,0.0007,-24.4
2.887,0.0007,-0.012,0.0217,-0.0015,-24.6
2.888,-0.0015,-0.0143,0.018,0.0,-24.8
2.889,0.0,0.006,0.0165,0.0015,-25.0
2.89,0.0007,0.0157,0.0165,0.003,-25.2
2.891,0.0007,-0.0083,0.015,0.0037,-25.4
2.892,0.0,-0.039,0.0165,0.0015,-25.6
2.893,-0.0015,-0.0721,0.0112,0.0015,-25.8
2.894,0.0007,-0.0795,0.0067,0.003,-26.0
2.895,0.0007,-0.0878,0.0082,0.0037,-26.2
2.896,0.0045,-0.0818,0.0045,0.003,-26.5
2.897,0.0045,-0.057,0.0037,-0.0046,-26.6
2.898,0.0037,-0.0346,-0.0015,-0.0091,-26.9
2.899,0.0037,-0.0053,-0.0008,-0.006,-27.0
2.9,0.0007,-0.0128,-0.003,-0.0068,-27.3
2.901,0.0037,-0.0346,-0.0113,-0.0008,-27.5
2.902,0.006,-0.0346,-0.0105,0.0045,-27.8
2.903,0.0052,-0.0218,-0.0128,0.0052,-28.0
2.904,0.003,0.0,-0.0158,0.0052,-28.2
2.905,-0.003,0.012,-0.0218,0.0,-28.5
2.906,-0.0046,0.0127,-0.0256,-0.0046,-28.7
2.907,-0.0068,0.0075,-0.0256,-0.0158,-28.9
2.908,-0.0083,-0.0083,-0.0315,-0.0181,-29.2
2.909,-0.0091,-0.0503,-0.0323,-0.0143,-29.4
2.91,-0.0083,-0.09,-0.0368,-0.0083,-29.7
2.911,-0.0046,-0.0788,-0.0361,0.003,-29.9
2.912,-0.0068,-0.0383,-0.033,0.009,-30.2
2.913,-0.0038,-0.0083,-0.0338,0.0105,-30.4
2.914,-0.0015,0.0127,-0.0248,0.0082,-30.6
2.915,-0.003,0.0465,-0.024,0.0052,-30.9
2.916,-0.0015,0.0592,-0.0218,0.0082,-31.1
2.917,0.0007,0.054,-0.0128,0.0075,-31.3
2.918,0.0015,0.0457,-0.0143,0.0052,-31.5
2.919,0.003,0.0037,-0.0105,0.0045,-31.8
2.92,0.0045,-0.0308,-0.0105,0.0,-32.1
2.921,0.003,-0.06,-0.0113,-0.003,-32.3
2.922,0.003,-0.084,-0.0105,-0.0083,-32.5
2.923,0.0007,-0.0721,-0.012,-0.0105,-32.7
2.924,-0.0008,-0.057,-0.0091,-0.0113,-32.9
2.925,-0.003,-0.0315,-0.0105,-0.0113,-33.2
2.926,-0.0068,-0.0128,-0.0083,-0.0105,-33.4
2.927,-0.0128,-0.0105,-0.0083,-0.0098,-33.7
2.928,-0.012,-0.0015,-0.0046,-0.006,-33.9
2.929,-0.0083,0.0037,0.0015,-0.003,-34.1
2.93,-0.006,0.015,0.0015,-0.0038,-34.3
2.931,-0.0046,0.0247,0.0112,0.0007,-34.6
2.932,-0.0053,0.027,0.012,0.003,-34.8
2.933,-0.0068,0.018,0.0157,0.0007,-35.0
2.934,-0.0053,0.0022,0.0187,0.0022,-35.2
2.935,-0.006,0.003,0.0157,-0.0023,-35.5
2.936,-0.0046,0.0082,0.0195,-0.003,-35.7
2.937,0.0,0.03,0.0142,-0.0053,-36.0
2.938,0.0,0.063,0.018,-0.003,-36.2
2.939,0.0015,0.0787,0.0157,0.0007,-36.4
2.94,0.003,0.0555,0.0127,-0.0083,-36.7
2.941,0.003,0.0127,0.0187,-0.0098,-36.9
2.942,0.0022,-0.0143,0.0195,-0.012,-37.1
2.943,0.0052,-0.0315,0.0255,-0.0165,-37.4
2.944,0.0075,-0.0458,0.0225,-0.0158,-37.6
2.945,0.0052,-0.0436,0.0195,-0.012,-37.8
2.946,0.009,-0.012,0.0195,-0.0075,-38.1
2.947,0.012,0.0045,0.0165,-0.0046,-38.3
2.948,0.0127,0.0007,0.0187,-0.003,-38.5
2.949,0.0142,0.009,0.018,-0.0015,-38.7
2.95,0.0127,0.0097,0.0195,0.0,-39.0
2.951,0.0105,0.0142,0.0195,0.0015,-39.2
2.952,0.0112,0.0195,0.0195,0.0045,-39.5
2.953,0.0105,0.024,0.0157,0.003,-39.7
2.954,0.0067,0.0255,0.0127,0.0007,-39.9
2.955,0.0037,0.0157,0.012,0.0015,-40.2
2.956,0.0015,0.0127,0.0067,0.0007,-40.4
2.957,0.0,0.009,0.0045,0.0007,-40.6
2.958,0.0,0.0082,0.0007,-0.0015,-40.9
2.959,-0.0008,0.0082,-0.0015,0.0007,-41.1
2.96,-0.0038,0.0075,-0.0046,0.0007,-41.4
2.961,-0.0053,0.0097,-0.0046,0.0007,-41.6
2.962,-0.003,0.0105,-0.0015,0.003,-41.8
2.963,-0.0075,0.009,0.003,-0.0008,-42.0
2.964,-0.0068,0.0112,0.0075,0.0022,-42.3
2.965,-0.0023,0.012,0.0097,0.0037,-42.5
2.966,-0.003,0.0105,0.0105,0.0045,-42.7
2.967,0.0015,0.0105,0.0067,0.0067,-42.9
2.968,0.0007,0.0105,0.003,0.0082,-43.2
2.969,-0.0008,0.0127,0.0007,0.0082,-43.4
2.97,-0.0008,0.0135,0.0007,0.0082,-43.7
2.971,-0.003,0.0112,-0.0008,0.0082,-43.9
2.972,-0.0008,0.0112,-0.0015,0.0045,-44.1
2.973,-0.0015,0.0105,-0.0068,0.0052,-44.3
2.974,-0.0046,0.009,-0.0053,0.0015,-44.6
2.975,-0.0046,0.0082,-0.003,-0.0023,-44.8
2.976,-0.0038,0.0082,-0.006,-0.0015,-45.0
2.977,-0.0015,0.0067,-0.0046,-0.003,-45.2
2.978,-0.0023,0.0067,-0.0083,-0.0015,-45.5
2.979,-0.003,0.0105,-0.0053,0.0007,-45.7
2.98,-0.003,0.012,-0.003,0.0007,-45.9
2.981,-0.0038,0.012,-0.0068,-0.0015,-46.1
2.982,-0.0023,0.0112,-0.0068,-0.0015,-46.3
2.983,-0.0038,0.0105,-0.0113,-0.0038,-46.5
2.984,-0.0046,0.0097,-0.0075,-0.003,-46.8
2.985,-0.0053,0.006,-0.0068,-0.0038,-47.0
2.986,-0.0046,0.0045,-0.0105,-0.0068,-47.2
2.987,-0.003,0.0052,-0.0091,-0.0023,-47.4
2.988,-0.003,0.0052,-0.0098,0.0007,-47.6
2.989,0.0,0.0037,-0.0068,-0.0008,-47.8
