Time_s,RF,BF,VM,ST,FX
0.0,-0.0008,-0.0046,0.003,-0.0098,-59.1
0.001,0.0007,-0.0053,0.0015,-0.006,-59.2
0.002,0.0,-0.0046,0.003,-0.0015,-59.3
0.003,0.0007,-0.0015,0.0067,0.003,-59.4
0.004,-0.0008,-0.0023,0.0052,0.012,-59.4
0.005,-0.0008,-0.0015,0.006,0.0165,-59.5
0.006,-0.0015,0.0007,0.0052,0.018,-59.6
0.007,-0.0008,0.0022,0.0045,0.0202,-59.7
0.008,0.0015,0.003,0.0067,0.0165,-59.8
0.009,0.0015,0.0022,0.0045,0.0127,-59.9
0.01,0.0007,0.0015,0.0045,0.0105,-60.0
0.011,-0.0015,0.0007,0.0037,0.009,-60.1
0.012,0.0007,0.0015,0.0045,0.0045,-60.2
0.013,0.0,-0.0008,0.003,0.0,-60.3
0.014,0.0007,-0.0015,0.0007,-0.0015,-60.4
0.015,0.0045,-0.003,0.0007,-0.006,-60.5
0.016,0.0007,-0.0046,0.0007,-0.0091,-60.6
0.017,0.0007,-0.003,0.0015,-0.0091,-60.7
0.018,0.0007,-0.0046,0.0015,-0.0091,-60.8
0.019,0.0007,-0.003,-0.0008,-0.0068,-60.8
0.02,0.0007,-0.003,-0.0008,-0.0053,-61.0
0.021,-0.0008,-0.0015,-0.003,-0.0053,-61.0
0.022,0.0,0.0,-0.0008,-0.006,-61.0
0.023,-0.0023,0.0,0.0022,-0.0053,-61.1
0.024,-0.003,0.0,0.003,-0.0068,-61.2
0.025,-0.003,0.0007,0.0052,-0.0083,-61.2
0.026,-0.0023,0.0015,0.0052,-0.0053,-61.2
0.027,-0.0008,-0.0015,0.0045,-0.0053,-61.3
0.028,-0.0008,-0.0015,0.0052,-0.0038,-61.4
0.029,0.0007,-0.003,0.0067,-0.003,-61.4
0.03,-0.0008,-0.0015,0.0067,-0.0008,-61.5
0.031,0.0007,0.0007,0.0052,0.0045,-61.5
0.032,0.0,0.0007,0.0067,0.006,-61.6
0.033,-0.0015,0.003,0.0052,0.0105,-61.7
0.034,-0.0023,0.0007,0.0045,0.012,-61.7
0.035,-0.0023,0.0007,0.003,0.0112,-61.7
0.036,-0.0008,0.0015,0.0022,0.0067,-61.8
0.037,-0.003,0.0007,0.003,0.0015,-61.8
0.038,-0.0023,0.0007,0.0022,-0.0015,-61.9
0.039,-0.0023,0.0007,0.0015,-0.0046,-62.0
0.04,-0.0015,-0.0015,0.0007,-0.0053,-62.1
0.041,0.0,-0.0015,0.0,-0.0053,-62.1
0.042,-0.0015,-0.0015,-0.0008,-0.0046,-62.1
0.043,-0.0015,-0.003,-0.0015,-0.0038,-62.1
0.044,0.0007,-0.003,-0.0015,-0.0053,-62.1
0.045,0.0,-0.0023,0.0007,-0.0068,-62.1
0.046,-0.0008,-0.0023,0.0,-0.0046,-62.1
0.047,-0.0008,-0.003,-0.003,-0.0038,-62.1
0.048,-0.0015,-0.0038,-0.0038,-0.0053,-62.2
0.049,-0.0008,-0.003,-0.0015,-0.0023,-62.2
0.05,0.0,-0.0015,-0.0008,-0.0008,-62.2
0.051,-0.0008,-0.003,0.0,0.0007,-62.2
0.052,0.0,-0.0023,-0.0015,-0.0008,-62.2
0.053,-0.0008,-0.0015,-0.0008,-0.003,-62.3
0.054,0.0007,-0.0046,0.0015,-0.0008,-62.3
0.055,0.003,-0.0038,0.003,-0.0015,-62.3
0.056,0.0037,-0.003,0.0022,-0.0038,-62.3
0.057,0.003,-0.0015,0.0015,-0.0038,-62.4
0.058,0.003,0.0007,0.0,-0.0008,-62.4
0.059,0.003,-0.0008,-0.0015,0.0015,-62.4
0.06,0.0015,-0.0015,-0.0015,0.0045,-62.5
0.061,0.003,-0.0023,-0.0015,0.0045,-62.5
0.062,0.003,-0.0023,0.0,0.0052,-62.4
0.063,0.0022,-0.0015,0.0007,0.006,-62.4
0.064,0.0022,-0.003,0.0015,0.0067,-62.4
0.065,0.003,-0.0038,0.0015,0.0082,-62.4
0.066,0.003,-0.003,0.003,0.0052,-62.3
0.067,0.003,-0.0023,0.003,0.0052,-62.3
0.068,0.003,-0.0015,0.003,0.003,-62.3
0.069,0.0015,-0.0015,0.0022,0.0,-62.3
0.07,0.0007,-0.0008,0.0015,0.0015,-62.2
0.071,0.0022,-0.0015,0.003,-0.0008,-62.2
0.072,0.003,-0.0008,0.0,-0.0046,-62.2
0.073,0.0015,0.0007,-0.0008,-0.0046,-62.2
0.074,0.0007,0.0,-0.0008,-0.003,-62.2
0.075,0.0015,-0.0015,-0.0015,-0.0008,-62.1
0.076,0.0007,-0.003,0.0007,0.0015,-62.1
0.077,0.0007,-0.003,0.0007,0.003,-62.1
0.078,0.0022,-0.0023,0.0015,0.0067,-62.1
0.079,0.0015,-0.0015,0.003,0.0075,-62.1
0.08,0.0007,-0.003,0.0022,0.0052,-62.1
0.081,0.0,-0.003,0.003,0.0052,-62.0
0.082,-0.0015,-0.003,0.0015,0.0052,-62.0
0.083,-0.0023,-0.0008,-0.0015,0.006,-61.9
0.084,-0.0008,-0.0008,-0.0008,0.0045,-61.8
0.085,0.0,-0.0015,-0.0008,0.0,-61.8
0.086,-0.0015,-0.0015,-0.0008,-0.0015,-61.7
0.087,-0.0015,-0.0008,-0.0008,-0.0046,-61.7
0.088,0.0,-0.0008,-0.0008,-0.0053,-61.6
0.089,0.0007,-0.0008,0.0007,-0.003,-61.6
0.09,0.0007,-0.0008,0.0007,-0.0008,-61.5
0.091,-0.0008,-0.0008,0.0015,0.0,-61.4
0.092,-0.0015,-0.0008,0.0007,-0.003,-61.4
0.093,-0.0008,-0.0008,0.0022,-0.0046,-61.3
0.094,-0.0015,-0.0015,0.0052,-0.0053,-61.2
0.095,-0.0023,-0.0015,0.003,-0.0053,-61.2
0.096,0.0007,-0.0008,0.0022,-0.0038,-61.2
0.097,0.0007,0.0007,0.003,-0.0046,-61.1
0.098,-0.0008,0.0022,0.0022,-0.003,-61.0
0.099,0.0022,0.0007,0.0015,-0.0038,-61.0
0.1,0.0015,-0.0008,0.0007,-0.0023,-60.9
0.101,0.0015,-0.0008,0.0,-0.0008,-60.8
0.102,0.0007,0.0,-0.0008,-0.0015,-60.8
0.103,-0.0023,-0.0008,0.0007,0.0,-60.7
0.104,-0.0015,-0.0015,0.0007,0.0007,-60.6
0.105,-0.0008,-0.0015,0.0007,-0.0008,-60.4
0.106,0.0007,0.0,0.0015,-0.0008,-60.3
0.107,0.0015,-0.0008,0.0015,0.0007,-60.3
0.108,0.0,-0.0015,0.0015,-0.0008,-60.2
0.109,-0.0015,-0.0008,0.0015,-0.0015,-60.1
0.11,-0.0015,-0.0015,0.0015,0.0007,-60.0
0.111,-0.0023,-0.0015,0.0015,0.0,-59.9
0.112,-0.003,-0.003,0.0015,0.0007,-59.8
0.113,-0.0008,-0.0015,0.003,0.0,-59.7
0.114,-0.0008,-0.0015,0.0045,0.0015,-59.6
0.115,-0.0008,-0.003,0.003,0.0015,-59.5
0.116,0.0007,-0.0023,0.0045,0.0007,-59.4
0.117,0.0007,-0.0023,0.0052,0.0015,-59.3
0.118,-0.0015,-0.0008,0.003,0.0015,-59.2
0.119,0.0,-0.0008,0.0015,0.0045,-59.1
0.12,0.0,-0.0008,0.0007,0.0037,-59.0
0.121,-0.0023,0.0007,0.0015,0.0015,-58.9
0.122,-0.0015,0.0015,0.0015,0.0015,-58.8
0.123,-0.003,0.0015,0.0015,0.0007,-58.6
0.124,-0.0008,0.0007,0.0,-0.0015,-58.5
0.125,0.0007,-0.0008,-0.0008,-0.0015,-58.4
0.126,-0.0008,0.0015,0.0015,-0.0015,-58.3
0.127,0.0007,0.0015,0.0015,0.0,-58.1
0.128,0.0,0.0007,0.0007,0.0015,-58.0
0.129,-0.0008,0.0015,0.0007,0.0022,-57.9
0.13,0.0007,-0.0008,0.0007,0.0015,-57.7
0.131,0.0015,-0.0023,0.0022,0.0015,-57.6
0.132,0.0022,-0.0015,0.0022,0.0015,-57.5
0.133,0.003,-0.0015,0.0045,0.0015,-57.3
0.134,0.003,-0.0015,0.0037,0.0007,-57.2
0.135,0.003,-0.003,0.0022,-0.0008,-57.1
0.136,0.0022,-0.0046,0.0015,-0.0008,-57.0
0.137,0.003,-0.0046,0.0015,0.0007,-56.8
0.138,0.0037,-0.0023,0.003,0.0007,-56.7
0.139,0.0015,-0.003,0.0007,0.0,-56.6
0.14,-0.0008,-0.0015,0.0,0.0022,-56.4
0.141,0.0,-0.003,-0.0015,0.0022,-56.3
0.142,0.0007,-0.0046,-0.0015,0.0007,-56.1
0.143,0.0015,-0.0008,-0.0008,0.0,-56.0
0.144,0.0,0.0,0.0015,0.0007,-55.8
0.145,-0.0023,0.0,0.003,0.0,-55.7
0.146,-0.0015,-0.0008,0.003,-0.0015,-55.5
0.147,-0.003,-0.003,0.0037,-0.0015,-55.4
0.148,-0.0046,0.0,0.0037,-0.0023,-55.2
0.149,-0.0038,-0.0008,0.0037,-0.003,-55.0
0.15,-0.0023,-0.0023,0.0007,-0.003,-54.9
0.151,-0.0015,-0.0015,0.0007,-0.0068,-54.8
0.152,-0.003,-0.0015,0.003,-0.0053,-54.6
0.153,-0.0023,-0.0046,0.0015,-0.0053,-54.5
0.154,-0.0023,-0.0046,0.0015,-0.0053,-54.3
0.155,-0.0008,-0.0008,0.0007,-0.0038,-54.1
0.156,0.0015,-0.0015,-0.0015,-0.0038,-54.0
0.157,0.0015,-0.0015,0.0,-0.0046,-53.8
0.158,0.0007,-0.003,0.0007,-0.0038,-53.7
0.159,0.0007,-0.0038,0.0007,-0.0015,-53.5
0.16,0.0007,-0.0015,0.003,0.0,-53.4
0.161,-0.0008,-0.003,0.0015,0.0015,-53.2
0.162,-0.0015,-0.0015,0.0045,0.0015,-53.0
0.163,-0.0023,0.0,0.0022,0.0015,-52.8
0.164,-0.0023,-0.0008,0.0007,0.003,-52.7
0.165,-0.0008,0.0007,0.003,0.0007,-52.5
0.166,0.0015,0.0007,0.0015,0.0015,-52.3
0.167,0.0007,0.0007,0.0007,0.0007,-52.1
0.168,-0.0008,0.0,-0.0008,-0.0008,-51.9
0.169,0.0007,-0.0015,0.0007,0.0015,-51.8
0.17,-0.0008,0.0007,0.003,-0.0008,-51.6
0.171,-0.0015,-0.0008,0.0045,-0.0008,-51.4
0.172,0.0,-0.0008,0.006,0.0007,-51.3
0.173,0.0007,-0.0008,0.0052,0.0015,-51.1
0.174,0.0007,-0.0015,0.003,0.0007,-50.9
0.175,0.0015,0.0007,0.0015,0.0022,-50.7
0.176,0.0022,0.0007,0.0007,0.003,-50.5
0.177,0.0007,0.0,0.0015,0.0045,-50.4
0.178,0.0,0.0007,0.0007,0.0052,-50.2
0.179,0.0007,-0.0015,0.003,0.0052,-50.0
0.18,-0.0008,-0.0023,-0.0008,0.0052,-49.8
0.181,-0.0023,0.0015,-0.0015,0.003,-49.6
0.182,-0.0015,0.003,-0.0008,0.0007,-49.4
0.183,-0.0008,0.0022,-0.003,0.0015,-49.2
0.184,0.0022,0.0007,-0.003,0.0007,-49.0
0.185,0.003,-0.0015,-0.003,-0.0008,-48.7
0.186,0.0022,-0.0038,-0.003,0.0,-48.6
0.187,0.0022,-0.0015,-0.003,0.0015,-48.3
0.188,0.0015,0.0,-0.003,0.0007,-48.1
0.189,-0.0008,-0.0008,-0.0008,0.003,-47.9
0.19,-0.0008,0.0007,-0.0015,0.0022,-47.7
0.191,0.0,0.0007,-0.0023,0.0007,-47.5
0.192,0.0007,-0.0023,0.0,0.0007,-47.3
0.193,-0.0015,-0.003,0.0007,-0.0008,-47.1
0.194,0.0,-0.003,0.0015,-0.0015,-46.8
0.195,0.0,-0.0046,0.003,-0.0046,-46.6
0.196,-0.0015,-0.0053,0.0015,-0.003,-46.4
0.197,-0.003,-0.0046,0.003,-0.0015,-46.2
0.198,-0.0038,-0.003,0.0007,-0.0015,-46.0
0.199,-0.0023,-0.0015,-0.0023,0.0007,-45.8
0.2,-0.003,-0.0008,0.0007,-0.0015,-45.6
0.201,-0.0008,0.0007,0.0007,0.0007,-45.4
0.202,0.0007,0.0015,0.0015,0.003,-45.1
0.203,0.0022,0.0015,0.0022,0.0022,-44.9
0.204,0.0015,0.0015,0.003,0.003,-44.6
0.205,-0.0008,0.0007,0.0045,0.0015,-44.4
0.206,0.0007,0.0015,0.0015,0.0015,-44.1
0.207,0.0007,0.0007,0.0015,0.0015,-43.9
0.208,-0.0008,-0.0008,0.0015,0.0045,-43.6
0.209,0.0015,-0.006,0.0007,0.003,-43.4
0.21,0.0007,-0.0105,0.0015,0.003,-43.1
0.211,0.0007,-0.0098,0.0007,0.0015,-42.9
0.212,-0.0008,-0.0068,0.0007,0.0007,-42.7
0.213,-0.0015,-0.0053,0.0015,0.0007,-42.4
0.214,-0.0008,-0.0038,0.0037,0.0007,-42.2
0.215,-0.0008,-0.003,0.0052,0.0022,-41.9
0.216,0.0,-0.0023,0.0015,0.003,-41.7
0.217,0.0,-0.0008,-0.0008,0.0,-41.4
0.218,0.0,0.0007,-0.003,-0.0008,-41.2
0.219,0.0015,0.0007,-0.0046,-0.0015,-40.9
0.22,0.0007,0.0007,-0.003,0.0007,-40.7
0.221,0.0015,0.0,-0.0015,0.0015,-40.4
0.222,0.0007,0.0007,0.0,-0.0008,-40.2
0.223,-0.0015,0.0007,-0.0015,-0.0008,-39.9
0.224,0.0015,0.0007,0.0,0.0007,-39.6
0.225,0.0015,0.003,0.0022,0.0007,-39.4
0.226,0.0007,0.003,0.0022,0.0007,-39.1
0.227,-0.0008,0.0022,0.0045,-0.0015,-38.9
0.228,0.0,0.003,0.0022,-0.0046,-38.6
0.229,-0.0008,0.0007,0.0007,0.0,-38.3
0.23,-0.0008,-0.0008,0.0,0.0,-38.1
0.231,-0.0015,-0.0008,0.0022,0.0,-37.8
0.232,-0.003,0.0,0.006,0.0022,-37.6
0.233,-0.0008,0.0015,0.0045,0.0015,-37.3
0.234,-0.0008,0.0007,0.0052,0.003,-37.1
0.235,0.0007,0.0022,0.0052,0.0022,-36.8
0.236,0.0022,0.0022,0.0045,0.0022,-36.5
0.237,0.0007,0.0015,0.0015,0.0007,-36.3
0.238,0.0022,-0.0008,0.0,-0.0008,-36.0
0.239,0.0022,-0.0015,0.0015,-0.0015,-35.8
0.24,0.0007,-0.0015,0.0,-0.0015,-35.5
0.241,0.0015,-0.0038,0.0007,-0.006,-35.2
0.242,0.0,-0.0046,0.003,-0.0046,-35.0
0.243,-0.0008,-0.0038,0.003,0.0007,-34.7
0.244,-0.0015,-0.0053,0.0015,0.0022,-34.4
0.245,-0.003,-0.0053,-0.0008,0.003,-34.1
0.246,-0.003,-0.0053,0.0007,0.0007,-33.8
0.247,-0.0015,-0.0083,-0.0008,-0.0015,-33.6
0.248,-0.0008,-0.0053,0.0007,-0.0008,-33.3
0.249,-0.0008,-0.0053,0.0015,0.0,-33.0
0.25,0.0022,-0.0046,0.0,0.0015,-32.8
0.251,0.0022,-0.0015,-0.0015,0.0007,-32.5
0.252,0.0022,-0.0008,-0.003,0.003,-32.2
0.253,0.0022,0.0007,0.0015,0.0045,-32.0
0.254,0.003,0.003,0.0045,0.0045,-31.7
0.255,0.0045,0.0052,0.003,0.003,-31.4
0.256,0.003,0.0037,0.0015,0.0007,-31.1
0.257,0.0015,0.0,0.0022,-0.0008,-30.8
0.258,0.0007,-0.003,0.0037,-0.0053,-30.6
0.259,-0.0023,-0.0046,0.0045,-0.0068,-30.3
0.26,-0.003,-0.0053,0.003,-0.0083,-30.0
0.261,-0.0008,-0.006,0.0045,-0.0068,-29.7
0.262,0.0015,-0.006,0.0007,-0.0053,-29.5
0.263,0.003,-0.0053,0.0,-0.0053,-29.2
0.264,0.0052,-0.0038,0.0007,-0.0046,-28.9
0.265,0.003,-0.0015,0.0007,-0.0046,-28.6
0.266,0.003,0.0007,0.0007,-0.0023,-28.4
0.267,0.0037,0.0015,0.0007,-0.0015,-28.1
0.268,0.003,0.0,0.0007,-0.0015,-27.8
0.269,-0.0023,-0.003,0.0015,-0.0008,-27.5
0.27,-0.0046,-0.0015,0.0007,0.0007,-27.2
0.271,-0.0038,0.0,0.0,0.0015,-27.0
0.272,-0.003,0.0007,0.0007,0.0045,-26.7
0.273,-0.0023,0.0007,0.003,0.0045,-26.4
0.274,-0.0023,-0.003,0.003,0.0052,-26.1
0.275,0.0015,-0.0015,0.003,0.006,-25.8
0.276,0.003,-0.0008,0.0007,0.0045,-25.6
0.277,0.0105,-0.0008,-0.0015,0.0052,-25.3
0.278,0.0157,-0.0008,-0.0015,0.003,-25.0
0.279,0.0097,-0.0023,0.0007,0.0015,-24.7
0.28,0.0037,0.0007,0.0015,0.0007,-24.4
0.281,-0.0053,0.0007,0.0022,0.0015,-24.2
0.282,-0.0128,-0.0008,0.003,0.0045,-23.9
0.283,-0.012,-0.0046,0.0037,0.003,-23.7
0.284,-0.0128,-0.0098,0.0015,0.0015,-23.4
0.285,-0.012,-0.0083,0.0,-0.0023,-23.1
0.286,-0.0091,-0.0091,-0.0008,-0.003,-22.9
0.287,-0.0046,-0.0083,-0.0008,-0.0046,-22.6
0.288,0.0,-0.0023,0.0,-0.0046,-22.4
0.289,0.0022,-0.0008,0.0,-0.0023,-22.1
0.29,0.0015,-0.0008,-0.0008,0.0015,-21.8
0.291,0.003,0.0015,-0.0008,0.0022,-21.6
0.292,0.0082,0.0022,-0.0008,0.0045,-21.3
0.293,0.0082,0.003,-0.0008,0.0067,-21.1
0.294,0.0045,0.0045,0.0015,0.0067,-20.8
0.295,0.0015,0.0037,0.0037,0.0067,-20.6
0.296,0.0007,0.0015,0.0045,0.0015,-20.3
0.297,0.0007,0.0007,0.0052,-0.0038,-20.0
0.298,-0.0023,0.0,0.003,-0.0053,-19.8
0.299,-0.0008,-0.0008,0.003,-0.0053,-19.5
0.3,0.0022,-0.0015,0.0,-0.0075,-19.3
0.301,0.003,-0.003,-0.0023,-0.0068,-19.1
0.302,0.0045,-0.0015,-0.0008,-0.0015,-18.9
0.303,0.0045,0.0015,-0.003,-0.0015,-18.7
0.304,0.0007,0.0037,-0.003,-0.0023,-18.5
0.305,-0.003,0.0045,-0.003,-0.0046,-18.3
0.306,-0.0015,0.0045,0.0,-0.0046,-18.0
0.307,0.0015,0.0022,0.003,-0.0023,-17.9
0.308,0.0015,0.0015,0.0037,-0.0053,-17.6
0.309,0.0045,0.0007,0.0067,-0.0046,-17.5
0.31,0.0067,0.0022,0.009,-0.0008,-17.2
0.311,0.0097,0.0007,0.0067,-0.0008,-17.1
0.312,0.0105,-0.0023,0.0037,-0.0008,-16.9
0.313,0.003,-0.0015,0.0022,0.0015,-16.7
0.314,-0.0008,-0.0008,0.0015,0.0045,-16.5
0.315,-0.003,-0.0008,0.0015,0.006,-16.2
0.316,-0.0046,0.003,0.0037,0.0105,-16.1
0.317,-0.003,0.006,0.003,0.0112,-15.8
0.318,-0.0008,0.006,0.0007,0.0075,-15.7
0.319,0.0052,0.0045,0.0007,0.006,-15.4
0.32,0.0082,0.003,0.0015,0.003,-15.3
0.321,0.0052,-0.0015,0.0015,-0.0023,-15.1
0.322,-0.0015,-0.0046,0.0015,-0.0008,-14.9
0.323,-0.0083,-0.0083,0.0007,-0.0015,-14.8
0.324,-0.0113,-0.0105,0.0,-0.0046,-14.7
0.325,-0.0113,-0.0098,-0.0015,-0.0046,-14.5
0.326,-0.0098,-0.0091,-0.003,-0.0075,-14.4
0.327,-0.0091,-0.006,-0.0023,-0.0046,-14.2
0.328,-0.0046,0.0,-0.0038,-0.0015,-14.1
0.329,-0.0015,0.0037,-0.0015,-0.0008,-14.0
0.33,-0.0008,0.0037,0.0007,-0.0015,-13.8
0.331,0.003,0.003,0.0015,-0.0015,-13.6
0.332,0.003,0.0015,0.0022,-0.0008,-13.5
0.333,0.0045,-0.0008,0.0015,-0.0015,-13.4
0.334,0.0067,-0.003,0.0007,0.0007,-13.2
0.335,0.0067,-0.0053,-0.0015,0.0007,-13.1
0.336,0.0037,-0.006,-0.0015,-0.003,-12.9
0.337,-0.0008,-0.0053,0.0022,-0.003,-12.8
0.338,-0.0015,-0.0046,0.0007,-0.0015,-12.6
0.339,-0.003,-0.0015,-0.0008,-0.0008,-12.5
0.34,-0.0008,-0.0008,0.0015,-0.0008,-12.3
0.341,-0.003,0.0007,-0.0008,0.003,-12.2
0.342,-0.006,0.0022,0.0,0.0015,-12.1
0.343,-0.003,0.003,0.0015,0.0007,-12.0
0.344,-0.0023,0.003,0.0007,0.003,-11.9
0.345,-0.0008,0.0022,0.0022,0.003,-11.8
0.346,-0.0008,0.0052,0.0007,0.0045,-11.7
0.347,-0.0008,0.0052,-0.0015,0.0037,-11.6
0.348,-0.0015,0.003,0.0007,0.0,-11.5
0.349,-0.003,-0.0015,0.0015,-0.003,-11.4
0.35,-0.0038,-0.0046,0.0045,-0.003,-11.3
0.351,-0.0023,-0.003,0.0037,-0.0008,-11.2
0.352,-0.0008,-0.0015,0.0,0.0022,-11.1
0.353,-0.0008,-0.0015,0.0015,0.003,-11.0
0.354,0.0007,-0.0023,0.0022,0.0022,-10.9
0.355,0.0,-0.0068,0.0022,0.0015,-10.8
0.356,0.0015,-0.0091,0.0052,-0.0008,-10.7
0.357,-0.0008,-0.0053,0.0007,-0.0015,-10.6
0.358,0.0,-0.0053,0.0022,0.0,-10.5
0.359,0.003,-0.003,0.0105,0.0007,-10.4
0.36,0.0045,-0.003,0.012,-0.003,-10.3
0.361,0.003,-0.003,0.0112,-0.003,-10.3
0.362,0.0015,0.0,0.0052,-0.003,-10.2
0.363,0.0045,0.0,-0.0015,-0.003,-10.1
0.364,0.012,0.0022,-0.0053,-0.0008,-10.1
0.365,0.0112,0.0015,-0.0046,0.0007,-10.0
0.366,0.0037,0.0007,-0.0053,0.0007,-9.9
0.367,-0.0015,0.0007,-0.0046,0.0015,-9.9
0.368,-0.0091,0.003,-0.0008,0.0045,-9.9
0.369,-0.0158,0.0067,0.0015,0.0045,-9.8
0.37,-0.0105,0.0037,0.0015,0.0045,-9.7
0.371,-0.0083,0.0052,-0.003,0.0067,-9.7
0.372,-0.0053,0.0007,-0.0083,0.003,-9.6
0.373,-0.003,-0.0075,-0.0083,-0.0015,-9.5
0.374,-0.0046,-0.0105,-0.0068,-0.0053,-9.5
0.375,-0.0046,-0.0165,-0.003,-0.0075,-9.4
0.376,-0.0023,-0.015,0.0045,-0.006,-9.4
0.377,-0.0008,-0.0091,0.0097,-0.0046,-9.3
0.378,0.0022,-0.0053,0.0165,-0.003,-9.3
0.379,0.0037,-0.003,0.021,-0.003,-9.2
0.38,0.0022,-0.0023,0.012,-0.0038,-9.1
0.381,0.0052,-0.0015,0.0015,-0.003,-9.1
0.382,0.0037,-0.003,-0.0038,-0.0023,-9.1
0.383,0.0045,-0.0068,-0.0091,-0.003,-9.1
0.384,0.0045,-0.0068,-0.0105,-0.0015,-9.1
0.385,0.006,0.003,-0.015,0.0045,-9.1
0.386,0.009,0.0082,-0.0143,0.0105,-9.0
0.387,0.0067,0.0052,-0.0098,0.012,-9.0
0.388,0.0052,0.0082,-0.0068,0.012,-9.0
0.389,0.0045,0.0075,-0.0023,0.009,-9.0
0.39,0.0052,0.003,-0.0008,0.0022,-9.0
0.391,0.003,-0.0046,0.0007,-0.0075,-9.0
0.392,-0.0053,-0.012,0.0082,-0.015,-9.0
0.393,-0.0068,-0.0143,0.018,-0.0143,-9.0
0.394,-0.0053,-0.0083,0.0292,-0.0053,-9.0
0.395,-0.0015,0.0015,0.0352,0.0007,-9.0
0.396,0.0015,0.0067,0.0232,0.0045,-9.0
0.397,0.0052,0.0007,0.0082,0.0075,-9.0
0.398,0.0045,-0.0105,0.0,0.0052,-9.0
0.399,0.0037,-0.0158,-0.0053,-0.0053,-8.9
0.4,0.0045,-0.0105,-0.0098,-0.0105,-8.9
0.401,0.0015,-0.006,-0.0128,-0.0098,-8.9
0.402,-0.0015,-0.006,-0.0158,-0.0128,-8.9
0.403,-0.0038,-0.003,-0.0165,-0.0105,-9.0
0.404,-0.0023,0.0015,-0.0165,-0.0105,-9.0
0.405,-0.0008,0.0082,-0.0135,-0.0053,-9.0
0.406,-0.0015,0.0195,-0.0128,0.0015,-9.0
0.407,-0.0015,0.0247,-0.0083,0.0082,-9.0
0.408,-0.0015,0.018,-0.0053,0.0097,-9.0
0.409,-0.0015,-0.0091,-0.0038,0.0022,-9.1
0.41,-0.0015,-0.0278,-0.0008,0.003,-9.1
0.411,0.0,-0.0315,0.0052,0.003,-9.1
0.412,0.003,-0.0293,0.0112,0.0037,-9.2
0.413,0.0045,0.0,0.0067,0.018,-9.2
0.414,0.006,0.0315,0.0052,0.024,-9.2
0.415,0.0232,0.0307,0.012,0.0127,-9.2
0.416,0.0367,0.0157,0.024,0.0045,-9.3
0.417,0.0187,0.0022,0.0487,0.0037,-9.3
0.418,-0.0008,0.0015,0.0735,0.0075,-9.3
0.419,-0.012,0.0045,0.0555,0.0045,-9.3
0.42,-0.0285,-0.0038,0.0127,-0.0083,-9.4
0.421,-0.0346,-0.0068,-0.0165,-0.0053,-9.4
0.422,-0.0346,-0.0091,-0.0428,-0.0038,-9.5
0.423,-0.0278,-0.015,-0.0503,-0.0046,-9.5
0.424,-0.0143,-0.0128,-0.0511,-0.0046,-9.6
0.425,-0.0015,-0.015,-0.0518,-0.0113,-9.7
0.426,0.0082,-0.0225,-0.0428,-0.0128,-9.8
0.427,0.0045,-0.03,-0.0353,-0.0158,-9.8
0.428,0.0007,-0.024,-0.024,-0.021,-9.9
0.429,-0.0046,-0.0046,-0.0195,-0.0181,-9.9
0.43,-0.0068,0.0105,-0.0135,-0.0068,-10.0
0.431,-0.0038,0.0165,-0.0053,0.0045,-10.1
0.432,-0.0068,0.0165,-0.0023,0.012,-10.1
0.433,-0.0046,0.0142,0.0045,0.0052,-10.2
0.434,-0.0008,0.0142,0.0112,0.009,-10.3
0.435,0.009,0.0217,0.0172,0.027,-10.4
0.436,0.0195,0.042,0.0202,0.0315,-10.4
0.437,0.0217,0.0675,0.0247,0.0307,-10.5
0.438,0.0202,0.0517,0.0315,0.033,-10.5
0.439,0.012,0.0045,0.0307,0.027,-10.6
0.44,0.0022,-0.0083,0.0202,0.0067,-10.7
0.441,-0.0008,-0.0068,0.015,-0.0008,-10.8
0.442,0.0067,-0.0046,0.0172,-0.0038,-10.8
0.443,0.009,-0.024,0.018,-0.0075,-10.9
0.444,0.0052,-0.0465,0.0195,-0.0091,-11.0
0.445,0.0022,-0.0293,0.0127,-0.0165,-11.1
0.446,-0.012,-0.0135,0.0112,-0.0075,-11.2
0.447,-0.0473,-0.0105,0.0225,-0.003,-11.3
0.448,-0.0825,-0.0083,0.0292,0.003,-11.3
0.449,-0.0578,-0.0053,0.0225,0.0165,-11.4
0.45,-0.0225,0.0015,0.0105,0.0112,-11.5
0.451,-0.0015,0.0022,0.0015,0.0097,-11.6
0.452,0.0277,0.0,0.009,0.0202,-11.7
0.453,0.0345,0.006,0.024,0.0045,-11.8
0.454,0.0405,0.0135,0.018,-0.0165,-11.9
0.455,0.0405,0.0,-0.0053,-0.0308,-12.0
0.456,0.0352,-0.0256,-0.0218,-0.039,-12.0
0.457,0.033,-0.0465,-0.0248,-0.0225,-12.1
0.458,0.0307,-0.033,-0.0105,-0.0091,-12.2
0.459,0.0375,-0.0046,0.0007,-0.0091,-12.3
0.46,0.0352,-0.0105,-0.0105,-0.0143,-12.4
0.461,0.027,-0.0143,-0.0105,-0.0135,-12.5
0.462,0.0165,-0.0113,-0.0113,-0.0083,-12.6
0.463,0.0105,-0.0105,-0.0128,-0.0068,-12.6
0.464,0.0052,-0.0083,0.0045,-0.012,-12.7
0.465,-0.0046,-0.0195,0.018,-0.0195,-12.8
0.466,-0.0173,-0.027,0.015,-0.0195,-12.9
0.467,-0.0308,-0.027,0.0172,-0.0173,-13.0
0.468,-0.0383,-0.0105,0.0112,-0.0135,-13.0
0.469,-0.024,0.0127,-0.0068,-0.0053,-13.1
0.47,0.0082,0.0277,-0.0203,0.0187,-13.2
0.471,0.009,0.0262,-0.0428,0.0127,-13.3
0.472,-0.0128,0.0165,-0.039,-0.0075,-13.4
0.473,-0.0293,0.0172,-0.0083,-0.0091,-13.4
0.474,-0.033,0.0082,0.0217,-0.0158,-13.5
0.475,-0.0203,0.0187,0.0322,0.027,-13.6
0.476,0.0075,0.0517,0.0165,0.0945,-13.7
0.477,0.0195,0.0502,-0.0135,0.0915,-13.8
0.478,-0.0165,0.0127,-0.0503,0.033,-13.8
0.479,-0.0203,-0.0098,-0.0645,0.0052,-13.9
0.48,-0.0203,-0.0046,-0.06,0.0045,-14.0
0.481,-0.0233,0.0202,-0.0361,0.0052,-14.0
0.482,-0.0113,0.033,0.0045,0.0007,-14.1
0.483,-0.0105,-0.0008,0.0315,-0.0083,-14.1
0.484,0.0105,-0.033,0.0487,-0.015,-14.1
0.485,0.0142,-0.0285,0.0547,-0.021,-14.2
0.486,0.0292,-0.0181,0.0457,-0.0105,-14.2
0.487,0.0315,-0.0165,0.0315,-0.0083,-14.3
0.488,0.0142,-0.0158,0.0412,-0.0135,-14.3
0.489,0.0165,-0.0105,0.0577,-0.0135,-14.3
0.49,0.0067,-0.0068,0.051,-0.0046,-14.4
0.491,0.0015,-0.0015,0.0172,0.0007,-14.4
0.492,-0.0015,-0.0008,-0.0098,0.0045,-14.4
0.493,-0.003,-0.0075,-0.0353,0.0157,-14.4
0.494,-0.0023,-0.0046,-0.0465,0.0292,-14.5
0.495,-0.0008,0.0127,-0.0405,0.036,-14.5
0.496,0.0045,0.024,-0.0518,0.0285,-14.6
0.497,0.0135,0.0247,-0.0495,0.012,-14.6
0.498,0.0105,0.018,-0.0203,-0.0015,-14.6
0.499,-0.0195,0.021,0.0105,-0.012,-14.7
0.5,-0.0293,0.021,0.0315,-0.0158,-14.8
0.501,-0.0315,0.0142,0.0285,-0.003,-14.9
0.502,-0.0361,0.0037,0.0187,-0.0008,-15.2
0.503,-0.0233,-0.0218,0.0157,-0.0135,-15.3
0.504,-0.0053,-0.0533,0.0187,-0.0248,-15.6
0.505,0.0135,-0.0706,0.024,-0.0278,-15.8
0.506,0.027,-0.0623,0.015,-0.0173,-16.0
0.507,0.0255,-0.0405,-0.0083,-0.0046,-16.2
0.508,0.0157,-0.0233,-0.0315,0.0,-16.4
0.509,0.0045,-0.0113,-0.0346,0.0037,-16.7
0.51,0.0082,-0.0015,-0.0233,0.0067,-16.9
0.511,0.0165,-0.0015,-0.0105,0.0022,-17.1
0.512,0.0015,0.0015,0.003,0.0015,-17.3
0.513,-0.0068,0.0157,0.0082,0.0052,-17.5
0.514,0.003,0.024,0.0142,0.0105,-17.7
0.515,0.0105,0.027,0.021,0.0127,-17.9
0.516,0.0142,0.0292,0.0225,0.0165,-18.1
0.517,0.0307,0.0292,0.0202,0.0105,-18.4
0.518,0.0382,0.027,0.0232,0.0052,-18.5
0.519,0.0142,0.0255,0.03,0.0045,-18.8
0.52,0.0097,0.021,0.0277,-0.0015,-19.0
0.521,0.0292,0.0135,0.033,-0.0053,-19.2
0.522,0.0442,0.0082,0.039,-0.0143,-19.4
0.523,0.0532,0.0007,0.0232,-0.0195,-19.6
0.524,0.027,-0.0046,0.0112,-0.0218,-19.8
0.525,-0.0091,0.0,0.003,-0.0233,-20.0
0.526,-0.039,0.003,-0.033,-0.0075,-20.3
0.527,-0.0608,-0.0015,-0.0668,0.0082,-20.5
0.528,-0.0518,0.0015,-0.0675,0.0127,-20.7
0.529,-0.0128,0.0082,-0.0518,0.0052,-20.9
0.53,0.0052,0.0082,-0.0428,0.003,-21.1
0.531,-0.0195,0.006,-0.0428,0.0045,-21.3
0.532,-0.0511,0.003,-0.0293,-0.0038,-21.5
0.533,-0.0713,0.0007,-0.0225,-0.0173,-21.7
0.534,-0.063,-0.0008,-0.0083,-0.0158,-21.9
0.535,-0.033,0.0,0.0127,-0.0068,-22.1
0.536,-0.0083,0.0,0.0232,-0.0046,-22.3
0.537,0.009,0.0007,0.0315,0.0007,-22.5
0.538,0.009,-0.0008,0.0315,0.0015,-22.8
0.539,0.0075,-0.0015,0.0352,0.0037,-23.0
0.54,0.0045,-0.003,0.0307,0.0015,-23.2
0.541,0.0,-0.0008,0.0195,-0.006,-23.2
0.542,0.0052,0.0015,0.0195,-0.0083,-23.3
0.543,0.0,0.0007,0.0307,-0.0083,-23.3
0.544,-0.0046,-0.0015,0.0382,-0.0046,-23.4
0.545,-0.0008,0.003,0.027,0.0007,-23.4
0.546,-0.0008,0.0105,0.036,0.003,-23.5
0.547,0.0007,0.0157,0.0322,0.0007,-23.5
0.548,-0.0015,0.0157,-0.0046,0.0,-23.6
0.549,0.0015,0.012,-0.033,0.0015,-23.6
0.55,0.0045,0.0112,-0.0593,-0.0023,-23.7
0.551,0.006,0.0105,-0.0608,-0.0068,-23.8
0.552,0.0082,0.009,-0.0511,-0.0098,-23.8
0.553,0.0067,0.003,-0.0458,-0.0091,-23.9
0.554,0.0067,-0.0203,-0.0263,-0.0083,-23.9
0.555,0.0037,-0.0578,-0.012,-0.0068,-23.9
0.556,0.0007,-0.0488,-0.0083,0.0052,-24.0
0.557,0.0015,-0.0091,-0.0023,0.0112,-24.1
0.558,-0.003,-0.0075,0.0067,0.003,-24.1
0.559,-0.0233,-0.0091,0.0157,0.0067,-24.2
0.56,-0.0285,-0.0091,0.0262,0.0165,-24.3
0.561,-0.0083,-0.0165,0.0262,0.0037,-24.2
0.562,0.0157,-0.0105,0.0292,-0.003,-24.2
0.563,0.0457,-0.0068,0.042,-0.0023,-24.2
0.564,0.0405,-0.0075,0.0352,-0.0113,-24.2
0.565,0.0225,-0.0053,0.0232,-0.0068,-24.1
0.566,0.0067,0.0022,0.0225,-0.0128,-24.1
0.567,-0.0203,0.0045,0.0405,-0.0203,-24.1
0.568,-0.0158,-0.003,0.0547,-0.0113,-24.0
0.569,-0.0091,-0.0091,0.0217,-0.0015,-24.0
0.57,0.0015,-0.0105,-0.0113,0.0165,-24.0
0.571,0.0105,-0.006,-0.0256,0.0202,-23.9
0.572,0.0067,-0.0068,-0.0405,0.024,-23.9
0.573,0.0067,-0.006,-0.042,0.042,-23.9
0.574,-0.0008,-0.0053,-0.0465,0.0345,-23.9
0.575,-0.0068,-0.0046,-0.042,0.0172,-23.9
0.576,-0.0083,-0.0046,-0.024,0.0052,-23.8
0.577,-0.0053,-0.0046,-0.0083,0.0015,-23.8
0.578,-0.0128,-0.0046,0.0082,0.0007,-23.8
0.579,-0.024,-0.006,0.024,-0.0008,-23.8
0.58,-0.0256,-0.0068,0.0532,0.0007,-23.7
0.581,-0.0143,-0.0083,0.0615,0.0015,-23.7
0.582,-0.003,-0.0098,0.036,0.0082,-23.6
0.583,0.0082,-0.0075,0.0127,0.0112,-23.6
0.584,0.024,-0.0046,-0.0083,0.003,-23.6
0.585,0.0307,-0.0046,-0.0195,-0.0008,-23.5
0.586,0.0352,-0.0053,-0.0195,-0.0015,-23.5
0.587,0.0382,-0.0038,-0.0053,-0.0083,-23.5
0.588,0.0315,-0.0068,0.0225,-0.0098,-23.4
0.589,0.0195,-0.0075,0.0187,-0.012,-23.4
0.59,0.0082,-0.0068,-0.0105,-0.0113,-23.4
0.591,0.003,-0.012,-0.027,-0.012,-23.4
0.592,-0.0046,-0.0165,-0.0361,-0.0128,-23.3
0.593,-0.012,-0.0135,-0.0248,-0.0098,-23.3
0.594,-0.0075,-0.0091,-0.015,-0.0091,-23.3
0.595,-0.0053,-0.0083,-0.0083,-0.0075,-23.2
0.596,-0.0083,-0.0053,0.0015,-0.006,-23.2
0.597,-0.003,-0.0046,0.0067,-0.0015,-23.1
0.598,0.003,-0.0008,0.0142,0.003,-23.1
0.599,0.0052,0.0007,0.0172,0.0045,-23.1
0.6,-0.0008,0.0007,0.018,0.0067,-23.0
0.601,-0.006,0.0007,0.018,0.0045,-23.0
0.602,-0.006,0.0,0.015,0.0007,-23.0
0.603,-0.006,0.0,0.0142,-0.003,-23.0
0.604,-0.0015,0.0007,0.0105,-0.003,-23.0
0.605,0.0,0.0007,0.0105,-0.0008,-23.0
0.606,0.0007,0.0015,0.0082,-0.0023,-23.0
0.607,0.0015,0.0067,0.0052,-0.0068,-23.0
0.608,0.003,0.0082,0.0075,-0.0105,-23.0
0.609,0.0015,0.0082,0.0127,-0.0098,-23.0
0.61,0.0,0.0052,0.0292,-0.006,-23.0
0.611,0.0,0.0007,0.039,0.0007,-23.0
0.612,-0.0015,-0.003,0.0165,0.0045,-23.0
0.613,0.006,-0.0046,-0.006,0.0075,-23.0
0.614,0.0442,-0.0008,-0.021,0.0105,-23.0
0.615,0.0727,0.0007,-0.0428,0.009,-23.0
0.616,0.0382,0.0007,-0.0368,0.0052,-23.0
0.617,-0.0083,0.0015,-0.0256,0.003,-23.0
0.618,-0.0413,-0.0008,-0.021,0.0015,-23.0
0.619,-0.0675,-0.0023,-0.012,-0.0015,-23.0
0.62,-0.063,-0.0023,-0.0083,-0.0008,-23.0
0.621,-0.0518,0.0007,-0.0023,0.0015,-23.0
0.622,-0.0293,0.0015,-0.0046,0.0022,-23.0
0.623,-0.0113,0.0015,-0.006,0.0007,-23.0
0.624,-0.0015,0.003,0.003,-0.0015,-22.9
0.625,0.0067,0.0015,0.009,-0.0015,-22.9
0.626,0.0052,0.0007,0.0172,-0.006,-22.9
0.627,0.0082,0.0007,0.021,-0.0046,-22.8
0.628,0.0082,0.0007,0.0142,0.0015,-22.8
0.629,0.0105,0.0015,0.0082,0.0052,-22.8
0.63,0.0127,-0.0008,0.0037,0.0075,-22.8
0.631,0.012,-0.0015,0.003,0.0037,-22.7
0.632,0.0097,-0.0015,0.003,0.0022,-22.7
0.633,0.0127,0.0,0.0015,-0.003,-22.7
0.634,0.0127,0.0007,-0.0023,-0.0053,-22.7
0.635,0.0045,0.0015,-0.0038,-0.0008,-22.6
0.636,0.0015,0.0015,-0.0023,0.0022,-22.6
0.637,0.0015,0.0007,-0.003,0.0015,-22.6
0.638,-0.0023,0.0,-0.0038,-0.0015,-22.6
0.639,-0.0038,-0.0008,-0.0008,0.0015,-22.6
0.64,0.0037,0.0015,0.0007,0.0127,-22.5
0.641,0.0127,0.0015,0.0015,0.0165,-22.5
0.642,0.0075,0.0007,0.0052,0.0022,-22.5
0.643,-0.0083,0.0015,0.0127,-0.0015,-22.5
0.644,-0.0143,0.0045,0.0352,-0.0046,-22.4
0.645,-0.012,0.0067,0.0577,-0.0068,-22.4
0.646,-0.0091,0.0075,0.0547,-0.0015,-22.4
0.647,-0.003,0.0067,0.0487,-0.0023,-22.3
0.648,0.006,0.0082,0.0172,0.0022,-22.3
0.649,0.0127,0.0067,-0.0308,0.0127,-22.2
0.65,0.009,0.0067,-0.0503,0.0082,-22.2
0.651,0.0015,0.006,-0.0728,-0.0008,-22.2
0.652,-0.003,0.0045,-0.0728,-0.0015,-22.1
0.653,-0.0046,0.0052,-0.0593,-0.003,-22.1
0.654,-0.003,0.0045,-0.0458,-0.0008,-22.1
0.655,-0.0008,0.0067,-0.0203,-0.0046,-22.1
0.656,-0.0038,0.009,-0.0083,-0.0143,-22.0
0.657,-0.0046,0.0082,0.0037,-0.0113,-22.0
0.658,-0.0053,0.0067,0.0082,-0.006,-22.0
0.659,-0.0068,0.0052,0.0045,-0.0038,-21.9
0.66,-0.0053,0.0075,0.0052,-0.0046,-21.9
0.661,-0.003,0.0045,0.0052,-0.0038,-21.9
0.662,-0.0008,0.0045,0.0097,0.0045,-21.9
0.663,-0.0015,0.0045,0.0142,0.0097,-21.9
0.664,-0.003,0.0015,0.0172,0.0075,-21.9
0.665,-0.0008,0.003,0.0172,0.003,-21.9
0.666,0.0045,0.0022,0.0105,0.003,-21.9
0.667,0.012,0.003,0.0052,0.0112,-21.9
0.668,0.0157,0.0015,0.0052,0.0105,-21.9
0.669,0.0105,0.0015,0.0067,0.003,-21.9
0.67,-0.0128,0.0,0.0112,0.0015,-21.9
0.671,-0.0383,-0.0023,0.0187,-0.0008,-21.9
0.672,-0.0315,-0.0023,0.018,0.0052,-21.9
0.673,-0.0181,-0.0015,0.0105,0.012,-21.9
0.674,-0.0046,0.0007,0.0037,0.0112,-21.9
0.675,0.0067,-0.0008,0.0007,0.006,-21.9
0.676,0.0105,-0.0008,-0.0008,-0.0008,-21.9
0.677,0.0277,0.0007,-0.0008,-0.0015,-21.9
0.678,0.036,0.0,0.0015,-0.0038,-21.9
0.679,0.03,0.0,-0.0015,-0.0038,-21.9
0.68,0.0202,-0.0008,0.0022,-0.0053,-21.9
0.681,0.0142,-0.0008,0.012,-0.0046,-21.9
0.682,0.0105,-0.0015,0.0052,-0.0053,-21.9
0.683,-0.0038,-0.0053,0.0007,-0.0053,-21.9
0.684,-0.0105,-0.003,0.0015,-0.0038,-21.8
0.685,-0.0068,-0.0008,-0.0053,-0.0015,-21.8
0.686,0.0037,-0.0008,-0.0053,0.0007,-21.8
0.687,0.018,-0.003,-0.0046,-0.003,-21.8
0.688,0.021,-0.0008,-0.0015,-0.0015,-21.8
0.689,0.015,-0.0015,0.0067,0.0037,-21.8
0.69,0.003,-0.0053,0.0097,0.0045,-21.8
0.691,-0.0091,-0.0068,0.0082,-0.0023,-21.8
0.692,-0.0158,-0.0083,-0.0015,-0.006,-21.8
0.693,-0.0195,-0.0083,0.0015,-0.0083,-21.8
0.694,-0.0173,-0.0083,0.021,-0.0075,-21.8
0.695,-0.0181,-0.0075,0.033,-0.003,-21.8
0.696,-0.0195,-0.006,0.0187,-0.0023,-21.8
0.697,-0.0195,-0.003,-0.0053,0.0015,-21.7
0.698,-0.0143,-0.003,-0.0195,0.0,-21.7
0.699,-0.0053,-0.0023,-0.0346,-0.0015,-21.7
0.7,0.003,-0.0008,-0.0353,-0.0015,-21.7
0.701,0.018,-0.0008,-0.0293,-0.003,-21.7
0.702,0.0292,-0.003,-0.0181,0.0015,-21.7
0.703,0.0277,-0.0046,-0.0053,0.003,-21.7
0.704,0.0135,-0.006,-0.0008,0.0022,-21.6
0.705,-0.0015,-0.0068,0.0075,0.0007,-21.6
0.706,-0.0083,-0.0075,0.0067,-0.0053,-21.6
0.707,-0.012,-0.0075,0.0067,-0.0038,-21.6
0.708,-0.0098,-0.0083,0.0067,-0.003,-21.6
0.709,-0.0038,-0.0083,0.0067,-0.0068,-21.6
0.71,0.0037,-0.0068,0.0067,-0.0083,-21.5
0.711,0.0052,-0.0053,0.0045,-0.0053,-21.5
0.712,0.0015,-0.0046,0.0112,0.0,-21.5
0.713,-0.0053,-0.003,0.0262,0.0007,-21.5
0.714,-0.0083,-0.0015,0.0382,0.0007,-21.5
0.715,-0.0068,-0.003,0.0172,0.0052,-21.4
0.716,-0.0053,-0.0046,-0.0046,0.0112,-21.4
0.717,-0.0046,-0.0038,-0.0128,0.0075,-21.4
0.718,-0.0015,-0.0046,-0.0233,0.0007,-21.4
0.719,-0.0008,-0.0023,-0.0158,-0.0008,-21.3
0.72,0.0052,-0.003,-0.0128,-0.0038,-21.3
0.721,0.0082,-0.0038,-0.0046,-0.0015,-21.3
0.722,0.0045,-0.0046,0.0067,-0.0008,-21.3
0.723,0.0007,-0.0046,0.0112,-0.003,-21.3
0.724,-0.0038,-0.0015,0.0187,-0.003,-21.2
0.725,-0.0038,-0.0008,0.012,-0.0008,-21.2
0.726,-0.0046,-0.0008,0.0052,0.0,-21.2
0.727,-0.003,0.0007,0.0037,-0.0015,-21.2
0.728,-0.0015,0.0007,0.0045,0.0,-21.2
0.729,-0.0008,-0.0008,0.006,0.0022,-21.2
0.73,-0.0008,-0.0015,0.0067,0.0022,-21.2
0.731,-0.0015,-0.0023,0.0045,0.0007,-21.2
0.732,-0.0008,-0.0015,0.003,0.0007,-21.1
0.733,0.003,-0.0008,0.0052,-0.0008,-21.1
0.734,0.0067,-0.0008,0.006,0.0007,-21.1
0.735,0.0052,0.0,0.0067,0.0015,-21.1
0.736,-0.0015,-0.0015,0.0052,-0.003,-21.1
0.737,-0.0068,-0.0015,0.0052,-0.012,-21.0
0.738,-0.0068,0.0007,0.0045,-0.0113,-21.0
0.739,-0.006,0.0,0.0015,-0.0015,-21.0
0.74,-0.0068,-0.003,0.0,-0.0008,-21.0
0.741,-0.0068,-0.003,-0.0015,-0.0015,-21.0
0.742,-0.0091,-0.003,-0.0023,0.0052,-21.0
0.743,-0.0091,-0.0015,-0.0015,0.015,-20.9
0.744,-0.0046,-0.0008,-0.0015,0.0097,-20.9
0.745,-0.0008,-0.0008,-0.0015,0.0007,-20.9
0.746,-0.0015,0.0015,-0.0023,0.0052,-20.9
0.747,-0.0053,0.0,-0.0015,0.006,-20.9
0.748,-0.0023,0.0,-0.0023,0.0067,-20.9
0.749,0.0022,0.0,-0.0015,0.0052,-20.9
0.75,0.0127,0.0007,-0.003,0.0045,-20.9
0.751,0.0217,-0.0008,-0.0046,0.0075,-20.9
0.752,0.0217,-0.0008,-0.0053,0.003,-20.9
0.753,0.018,-0.0008,-0.003,0.0037,-20.8
0.754,0.0097,-0.0023,-0.003,0.0007,-20.8
0.755,0.0015,-0.0008,-0.0015,-0.0046,-20.8
0.756,-0.0015,-0.003,0.0007,-0.0068,-20.8
0.757,-0.0015,-0.0053,0.0022,-0.0113,-20.8
0.758,0.0007,-0.0053,0.0082,-0.012,-20.8
0.759,0.0015,-0.0053,0.012,-0.0083,-20.8
0.76,-0.0008,-0.0046,0.0082,-0.0046,-20.8
0.761,-0.0046,-0.0053,0.009,-0.0038,-20.8
0.762,-0.0091,-0.0053,0.0097,0.0015,-20.8
0.763,-0.0083,-0.0046,0.0112,0.009,-20.8
0.764,-0.0053,-0.0023,0.009,0.0082,-20.8
0.765,-0.0023,-0.0038,0.0067,0.006,-20.8
0.766,0.003,-0.0053,0.0082,0.0097,-20.8
0.767,0.0007,-0.003,0.006,0.012,-20.8
0.768,-0.003,-0.003,0.003,0.0097,-20.8
0.769,-0.0046,-0.003,0.0007,0.0067,-20.8
0.77,-0.0046,-0.0038,-0.0008,0.0045,-20.7
0.771,-0.0023,-0.003,-0.0038,-0.0008,-20.7
0.772,-0.003,-0.0015,-0.0053,-0.006,-20.7
0.773,-0.0015,-0.0015,-0.0075,-0.0038,-20.7
0.774,-0.003,-0.0015,-0.0128,-0.0053,-20.7
0.775,-0.0053,-0.003,-0.0143,-0.0046,-20.7
0.776,-0.006,-0.003,-0.0135,0.0007,-20.7
0.777,-0.006,-0.0015,-0.0113,0.0067,-20.7
0.778,-0.0068,-0.0023,-0.0053,0.0037,-20.7
0.779,-0.0083,-0.003,-0.0023,-0.0008,-20.7
0.78,-0.0053,-0.0015,-0.0015,-0.0015,-20.7
0.781,-0.0008,0.0,-0.0015,-0.003,-20.7
0.782,0.0022,-0.0008,-0.0015,-0.003,-20.7
0.783,0.003,-0.0008,-0.0015,-0.0053,-20.7
0.784,0.0037,0.0007,0.0082,-0.003,-20.7
0.785,0.006,0.0007,0.0232,0.003,-20.7
0.786,0.0067,-0.0023,0.0232,0.0015,-20.7
0.787,0.006,-0.0023,0.0127,-0.0008,-20.7
0.788,0.0075,-0.0023,0.003,-0.003,-20.6
0.789,0.0045,-0.0023,-0.0023,0.0,-20.6
0.79,0.0052,-0.0008,-0.0053,-0.0008,-20.6
0.791,0.0082,-0.0008,-0.0105,0.0007,-20.6
0.792,0.0045,0.0007,-0.0128,0.0015,-20.6
0.793,0.0022,0.0,-0.012,0.0015,-20.5
0.794,-0.0008,0.0007,-0.012,0.0007,-20.5
0.795,-0.0015,-0.0008,-0.015,-0.0015,-20.5
0.796,-0.003,-0.0015,-0.0128,-0.0015,-20.5
0.797,-0.0046,-0.0008,-0.0053,-0.003,-20.5
0.798,-0.003,-0.0008,-0.0008,-0.003,-20.5
0.799,-0.0038,0.0007,0.003,-0.0008,-20.4
0.8,-0.003,0.003,0.0067,-0.0015,-20.4
0.801,-0.0023,0.0045,0.009,-0.0046,-20.4
0.802,-0.0015,0.0045,0.0112,-0.012,-20.4
0.803,0.0007,0.006,0.0097,-0.0143,-20.3
0.804,0.003,0.0052,0.009,-0.0046,-20.3
0.805,0.003,0.0022,0.0082,0.003,-20.3
0.806,0.0045,0.0022,0.0067,0.003,-20.3
0.807,0.0045,0.0022,0.0052,0.006,-20.3
0.808,0.0015,0.0022,0.0037,0.0067,-20.3
0.809,0.0007,0.0007,0.0045,0.0052,-20.2
0.81,0.0007,0.0007,0.0052,0.0052,-20.2
0.811,0.0022,0.0007,0.0022,0.003,-20.2
0.812,0.003,0.0,-0.0015,0.0037,-20.1
0.813,0.003,0.0015,-0.0015,0.003,-20.1
0.814,0.0037,0.0007,-0.0008,0.0015,-20.1
0.815,0.0052,0.0007,-0.003,0.0,-20.1
0.816,0.003,-0.0008,-0.0046,-0.0023,-20.0
0.817,-0.0008,-0.0008,-0.0023,-0.0046,-20.0
0.818,-0.0023,0.0,-0.0008,-0.0091,-20.0
0.819,-0.0015,0.0007,-0.0008,-0.0098,-20.0
0.82,-0.0015,0.0007,-0.0015,-0.0068,-19.9
0.821,-0.003,0.0007,0.0007,-0.0075,-19.9
0.822,-0.003,0.0,0.0037,-0.0083,-19.9
0.823,-0.003,-0.0008,0.006,-0.0046,-19.8
0.824,-0.0015,-0.0008,0.0067,-0.003,-19.8
0.825,-0.0008,-0.0015,0.0045,-0.0008,-19.8
0.826,-0.003,-0.0015,0.003,-0.0023,-19.8
0.827,-0.0038,-0.0015,0.003,-0.0008,-19.7
0.828,-0.0008,-0.0023,0.003,0.0015,-19.7
0.829,0.0007,-0.0046,0.0022,0.003,-19.7
0.83,-0.0008,-0.0046,0.0007,0.0052,-19.6
0.831,0.0,-0.0023,-0.0008,0.0097,-19.6
0.832,0.003,-0.0015,0.0,0.015,-19.6
0.833,0.0052,0.0007,0.0015,0.0157,-19.5
0.834,0.0037,0.0,0.0015,0.015,-19.5
0.835,0.003,-0.0008,0.0045,0.009,-19.4
0.836,0.0007,0.0,0.0045,0.0037,-19.4
0.837,0.0015,-0.0015,0.003,0.0007,-19.4
0.838,0.003,-0.0023,0.0045,-0.003,-19.4
0.839,0.0015,-0.003,0.003,-0.0015,-19.4
0.84,0.0007,-0.0023,0.003,-0.0046,-19.3
0.841,-0.0023,-0.003,0.003,-0.0083,-19.3
0.842,-0.0008,-0.003,-0.0008,-0.0075,-19.3
0.843,0.0015,-0.0023,-0.003,-0.0053,-19.2
0.844,-0.0008,-0.0015,-0.0023,-0.0091,-19.2
0.845,-0.0023,-0.003,0.0015,-0.0083,-19.2
0.846,-0.0023,-0.0023,0.0007,-0.0023,-19.1
0.847,-0.0008,-0.0015,0.0,0.0015,-19.1
0.848,-0.0015,0.0007,0.0022,0.0037,-19.1
0.849,-0.003,0.0015,0.0015,0.006,-19.0
0.85,-0.0038,0.0007,0.003,0.0097,-19.0
0.851,-0.003,0.0007,0.0045,0.0105,-19.0
0.852,-0.0046,0.0015,0.0052,0.009,-18.9
0.853,0.0015,0.0015,0.0075,0.0067,-18.9
0.854,0.009,0.0,0.0045,0.0067,-18.9
0.855,0.0037,-0.0008,0.0022,0.0037,-18.9
0.856,-0.0015,0.0007,0.0015,-0.0015,-18.9
0.857,-0.0053,0.0,0.0015,-0.0015,-18.8
0.858,-0.0091,-0.0008,0.0015,-0.006,-18.8
0.859,-0.0075,0.0,0.0007,-0.0083,-18.8
0.86,-0.0083,0.0,0.0007,-0.0068,-18.7
0.861,-0.006,-0.0008,0.0007,-0.0091,-18.7
0.862,-0.006,-0.0023,0.0015,-0.0083,-18.7
0.863,-0.0053,-0.003,0.0007,-0.0068,-18.6
0.864,0.0007,-0.003,-0.0008,-0.0083,-18.6
0.865,0.003,-0.0038,0.0007,-0.0053,-18.5
0.866,0.0,-0.0046,0.0007,-0.0046,-18.5
0.867,-0.0008,-0.0046,-0.0015,-0.0038,-18.5
0.868,0.0015,-0.0023,-0.0008,-0.0023,-18.5
0.869,0.0015,-0.0023,0.0007,-0.0038,-18.5
0.87,0.0052,-0.0023,0.0007,-0.0015,-18.4
0.871,0.009,-0.0023,0.0007,-0.0008,-18.4
0.872,0.0082,-0.003,0.0015,0.0,-18.4
0.873,0.0082,-0.003,0.0007,-0.0008,-18.3
0.874,0.0067,-0.0015,0.0007,0.0007,-18.3
0.875,0.003,0.0,-0.0015,0.0007,-18.2
0.876,0.0015,-0.0015,-0.003,-0.0015,-18.2
0.877,0.0007,-0.0023,-0.003,0.0045,-18.2
0.878,0.0007,0.0,-0.0038,0.009,-18.1
0.879,-0.0008,0.0015,-0.0046,0.0082,-18.1
0.88,0.0,0.0015,-0.0046,0.0112,-18.1
0.881,0.0015,0.0007,-0.0053,0.0135,-18.0
0.882,0.003,0.0007,-0.0053,0.0135,-18.0
0.883,0.003,0.0007,-0.0053,0.012,-18.0
0.884,0.0015,0.0007,-0.0053,0.0105,-18.0
0.885,-0.0008,-0.0015,-0.0046,0.0067,-17.9
0.886,-0.0053,-0.0015,-0.0038,0.0052,-17.9
0.887,-0.015,-0.0023,0.003,0.006,-17.9
0.888,-0.0203,0.0,0.0097,0.0037,-17.8
0.889,-0.012,-0.0008,0.0067,0.003,-17.8
0.89,0.0015,-0.0023,0.006,-0.003,-17.8
0.891,0.0045,-0.003,0.0052,-0.0068,-17.7
0.892,0.0045,-0.0038,0.006,-0.0068,-17.7
0.893,0.0015,-0.003,0.0067,-0.0068,-17.7
0.894,-0.0015,-0.0046,0.0052,-0.0046,-17.6
0.895,0.0007,-0.0023,0.003,-0.0015,-17.6
0.896,0.003,-0.0008,0.0007,-0.0015,-17.6
0.897,0.0037,-0.0015,-0.003,-0.0046,-17.6
0.898,0.003,0.0,-0.003,-0.0038,-17.5
0.899,0.0015,-0.0015,-0.0023,-0.0015,-17.5
0.9,0.0015,-0.0023,-0.003,-0.003,-17.5
0.901,0.0007,-0.0015,-0.003,-0.0038,-17.5
0.902,0.0015,-0.0023,-0.0008,-0.003,-17.4
0.903,0.0007,-0.0015,0.0,-0.0015,-17.4
0.904,-0.0015,-0.003,0.0015,-0.0008,-17.4
0.905,0.0007,-0.003,-0.0008,-0.0015,-17.3
0.906,0.0022,-0.0008,-0.0023,-0.0008,-17.3
0.907,0.003,-0.0008,-0.003,0.0,-17.3
0.908,0.0045,-0.0008,-0.0008,-0.0015,-17.3
0.909,0.0022,-0.0008,0.0,0.0015,-17.2
0.91,0.0007,-0.0008,-0.0023,0.0015,-17.2
0.911,0.0007,-0.0008,-0.0015,0.0015,-17.2
0.912,0.0022,0.0,0.0,0.0022,-17.2
0.913,0.0037,0.0007,-0.0008,0.0075,-17.2
0.914,0.003,-0.0008,0.0,0.012,-17.1
0.915,0.0015,0.0007,0.0007,0.0105,-17.1
0.916,0.0045,0.0,0.003,0.0052,-17.1
0.917,0.0045,-0.0008,0.0037,0.0,-17.1
0.918,0.0015,-0.0008,0.003,-0.003,-17.1
0.919,0.0015,-0.0015,0.0015,-0.003,-17.0
0.92,0.0015,-0.0023,0.003,-0.0046,-17.0
0.921,0.003,-0.0023,0.0045,-0.003,-17.0
0.922,0.0007,-0.0023,0.0015,-0.0008,-17.0
0.923,-0.003,-0.0038,0.0,0.0015,-17.0
0.924,-0.0015,-0.003,0.0022,0.0037,-16.9
0.925,-0.003,-0.0008,0.0015,0.003,-16.9
0.926,-0.0015,0.0007,0.0,0.0037,-16.9
0.927,-0.0015,0.0007,0.0007,0.0,-16.8
0.928,-0.0023,0.0,0.0007,-0.0038,-16.8
0.929,-0.0046,0.0,0.0015,0.0022,-16.8
0.93,-0.0046,0.0015,0.003,0.0052,-16.8
0.931,-0.003,0.0022,0.0037,0.0045,-16.8
0.932,-0.0023,0.0015,0.0015,-0.0008,-16.7
0.933,0.0022,0.0022,-0.0015,-0.003,-16.7
0.934,0.0082,0.0015,0.0015,-0.0023,-16.7
0.935,0.009,0.0007,0.0045,0.0015,-16.7
0.936,0.0045,-0.0015,0.0067,0.0052,-16.7
0.937,-0.0015,-0.0015,0.0067,0.0045,-16.6
0.938,-0.0083,-0.0008,0.006,0.0015,-16.6
0.939,-0.012,0.0,0.0052,-0.0008,-16.6
0.94,-0.012,0.0,0.003,-0.0015,-16.6
0.941,-0.0098,-0.0015,0.0022,-0.003,-16.5
0.942,-0.0038,-0.0008,0.0045,-0.0053,-16.5
0.943,0.0007,-0.0023,0.003,-0.006,-16.5
0.944,0.0045,-0.003,0.0022,-0.0046,-16.4
0.945,0.0075,-0.003,0.003,-0.003,-16.4
0.946,0.0052,-0.0046,0.0045,-0.003,-16.4
0.947,0.0,-0.0053,0.0037,-0.0083,-16.3
0.948,-0.0023,-0.0083,0.003,-0.0128,-16.3
0.949,-0.0038,-0.0083,0.0052,-0.0113,-16.3
0.95,-0.0008,-0.0068,0.0067,-0.0105,-16.2
0.951,0.0007,-0.0075,0.006,-0.0083,-16.2
0.952,-0.0008,-0.0053,0.0037,-0.0083,-16.2
0.953,-0.0008,-0.0046,0.0037,-0.0075,-16.2
0.954,0.0015,-0.003,0.0022,-0.0068,-16.1
0.955,0.0015,0.0015,0.0015,-0.0008,-16.1
0.956,0.0007,0.003,0.003,0.0067,-16.1
0.957,0.0007,0.003,0.0037,0.0097,-16.0
0.958,0.0007,0.0037,0.0037,0.012,-16.0
0.959,-0.0008,0.0015,0.0007,0.0075,-16.0
0.96,-0.0015,0.0007,0.0,0.0082,-15.9
0.961,-0.003,-0.0008,0.0,0.0112,-15.9
0.962,-0.003,-0.0008,-0.0015,0.012,-15.8
0.963,-0.003,-0.0023,-0.0008,0.0105,-15.8
0.964,-0.0008,-0.0015,0.0015,0.0067,-15.8
0.965,-0.0023,-0.0008,0.0015,0.0052,-15.8
0.966,-0.0015,-0.0023,-0.0008,0.0037,-15.8
0.967,0.0007,-0.0023,0.0007,0.0052,-15.7
0.968,0.0007,-0.0038,0.003,0.003,-15.7
0.969,0.0007,-0.0046,0.003,-0.0008,-15.6
0.97,-0.0008,-0.0053,0.003,-0.0008,-15.6
0.971,0.0007,-0.0046,0.003,-0.0023,-15.6
0.972,0.0015,-0.0046,0.0045,-0.0015,-15.5
0.973,0.0015,-0.0038,0.0015,-0.0091,-15.5
0.974,0.0022,-0.003,0.0007,-0.0135,-15.4
0.975,0.003,-0.003,0.003,-0.0008,-15.4
0.976,0.0015,-0.0015,0.0015,0.003,-15.4
0.977,0.003,-0.0008,0.0,0.0015,-15.3
0.978,0.0045,-0.0008,-0.0008,0.0015,-15.3
0.979,0.0052,0.0015,-0.0015,0.0007,-15.3
0.98,0.0045,0.0015,-0.0015,0.003,-15.3
0.981,0.0022,0.0015,-0.0053,-0.0008,-15.2
0.982,0.0015,0.0,-0.003,-0.003,-15.2
0.983,0.0,-0.0015,0.0007,-0.003,-15.2
0.984,0.0,-0.0023,0.0015,-0.0046,-15.1
0.985,-0.0008,-0.0015,0.0022,-0.003,-15.1
0.986,-0.0008,-0.0015,0.0007,-0.0053,-15.0
0.987,0.0,-0.0008,0.0015,-0.003,-15.0
0.988,-0.0008,-0.0015,-0.0008,-0.003,-15.0
0.989,-0.0008,-0.0015,-0.0015,-0.003,-14.9
0.99,-0.0008,-0.0015,0.0007,0.0007,-14.9
0.991,0.0015,-0.0015,-0.0008,-0.0015,-14.9
0.992,0.0022,-0.003,-0.0015,-0.0023,-14.8
0.993,0.0022,-0.003,-0.0015,-0.0015,-14.8
0.994,0.0015,-0.0008,-0.0008,0.0015,-14.8
0.995,-0.0015,-0.0008,0.0007,0.0007,-14.7
0.996,-0.0015,0.0,0.0007,-0.0008,-14.7
0.997,0.0007,0.0015,0.0045,0.0007,-14.6
0.998,0.003,0.0007,0.0075,-0.0015,-14.6
0.999,0.006,-0.0008,0.0045,0.0,-14.6
1.0,0.0105,-0.0015,0.0007,0.0007,-14.5
1.001,0.012,-0.0008,-0.0008,0.0,-14.5
1.002,0.0045,-0.0015,0.0007,0.0007,-14.4
1.003,-0.0023,-0.0015,0.0007,0.0015,-14.4
1.004,-0.0053,-0.0015,-0.003,0.003,-14.4
1.005,-0.0075,-0.0015,-0.006,0.003,-14.4
1.006,-0.0091,-0.0008,-0.0068,0.0067,-14.3
1.007,-0.0038,-0.0038,-0.0075,0.006,-14.3
1.008,0.0007,-0.0046,-0.0015,0.0007,-14.3
1.009,0.0022,-0.0046,0.0045,-0.0023,-14.2
1.01,0.0045,-0.0046,0.006,-0.0015,-14.2
1.011,0.0045,-0.0015,0.003,-0.0008,-14.1
1.012,0.0052,0.0022,0.0,-0.0015,-14.1
1.013,0.0052,0.0045,-0.0008,0.0007,-14.1
1.014,0.0037,0.0037,0.0007,0.0015,-14.0
1.015,0.0015,0.0045,-0.0015,0.0015,-14.0
1.016,0.0007,0.0052,-0.0015,0.0022,-14.0
1.017,-0.0008,0.0045,0.0007,0.0,-13.9
1.018,-0.0015,0.003,-0.0015,0.0007,-13.9
1.019,-0.0015,0.0007,-0.003,0.0007,-13.9
1.02,-0.003,-0.0008,-0.003,-0.0015,-13.8
1.021,-0.0023,-0.0023,-0.0023,-0.0023,-13.8
1.022,-0.0023,-0.0046,-0.0008,-0.0015,-13.8
1.023,-0.0015,-0.003,-0.0015,-0.0015,-13.7
1.024,0.0007,-0.0023,-0.0015,-0.0015,-13.7
1.025,0.0037,-0.0015,0.0052,-0.0023,-13.7
1.026,0.006,-0.0015,0.0067,-0.003,-13.6
1.027,0.0045,-0.0023,0.0045,-0.0008,-13.6
1.028,0.003,-0.0015,0.0045,0.0007,-13.6
1.029,0.0037,-0.003,0.0015,0.0007,-13.6
1.03,0.0067,-0.0053,0.003,-0.0015,-13.5
1.031,0.0052,-0.006,0.0045,0.0015,-13.5
1.032,0.0037,-0.0046,0.0067,0.0022,-13.5
1.033,-0.0008,-0.0046,0.0097,-0.0015,-13.5
1.034,-0.0053,-0.0046,0.0052,-0.0046,-13.5
1.035,-0.0053,-0.0053,0.003,-0.0038,-13.4
1.036,-0.0046,-0.0053,0.0015,-0.0038,-13.4
1.037,-0.0015,-0.003,-0.0008,-0.0038,-13.4
1.038,0.0,-0.0008,0.0022,-0.0008,-13.3
1.039,0.0015,0.0,0.0045,-0.0023,-13.3
1.04,-0.0008,0.0,0.0037,-0.0023,-13.3
1.041,-0.0015,0.0,0.0007,-0.0038,-13.3
1.042,-0.003,0.0007,0.0015,-0.0075,-13.2
1.043,-0.003,-0.0008,-0.0008,-0.006,-13.2
1.044,-0.0008,-0.003,-0.0008,-0.0046,-13.2
1.045,-0.003,-0.003,0.0007,-0.0023,-13.2
1.046,-0.0023,-0.0023,0.003,-0.0008,-13.2
1.047,-0.003,-0.0008,0.0082,0.0022,-13.1
1.048,-0.003,-0.0008,0.006,0.0067,-13.1
1.049,-0.003,0.0,0.0037,0.0067,-13.1
1.05,-0.0015,0.0015,-0.0015,0.0082,-13.1
1.051,0.0015,0.0015,-0.0053,0.0097,-13.1
1.052,-0.0008,0.0015,-0.0046,0.0075,-13.1
1.053,-0.0008,0.0007,-0.0075,0.0052,-13.1
1.054,-0.0023,0.0,-0.003,0.006,-13.0
1.055,-0.003,0.0015,0.003,0.0037,-13.0
1.056,0.0,0.0015,0.0015,-0.0008,-13.0
1.057,-0.0008,-0.0015,0.0045,-0.0008,-13.0
1.058,0.0007,-0.003,0.0037,-0.0008,-13.0
1.059,0.003,-0.0015,0.0045,0.0015,-12.9
1.06,0.0007,-0.0015,0.0052,0.0015,-12.9
1.061,-0.0008,-0.0008,0.0022,0.0007,-12.9
1.062,-0.0008,0.0015,0.0007,0.0015,-12.9
1.063,-0.0015,0.0015,-0.0008,0.003,-12.9
1.064,-0.0008,0.0015,0.0015,0.0052,-12.9
1.065,-0.0008,0.003,0.0045,0.0045,-12.9
1.066,0.0007,0.003,0.0037,0.0037,-12.9
1.067,0.003,0.003,0.0067,0.0022,-12.9
1.068,0.006,0.003,0.0052,0.0015,-12.9
1.069,0.0097,0.0007,0.0045,-0.003,-12.9
1.07,0.0105,0.0015,0.0037,-0.0113,-12.9
1.071,0.0082,0.0022,0.0007,-0.0128,-12.9
1.072,-0.0008,0.0015,0.0022,-0.0038,-12.9
1.073,-0.0075,0.0,0.0015,-0.003,-12.9
1.074,-0.0105,-0.0008,0.0,-0.0008,-12.9
1.075,-0.0128,0.0007,0.0007,0.0015,-12.9
1.076,-0.0143,0.0,0.0007,-0.0008,-12.9
1.077,-0.012,0.0,0.0015,0.0,-12.9
1.078,-0.003,-0.0038,0.003,-0.0023,-12.9
1.079,0.0045,-0.0046,0.0015,0.0,-12.9
1.08,0.0052,-0.0038,0.0022,-0.0008,-13.0
1.081,0.0,-0.0038,-0.0008,0.0,-13.0
1.082,-0.0046,-0.003,-0.0015,0.0007,-13.0
1.083,-0.0068,-0.003,0.0,-0.0008,-13.0
1.084,-0.003,-0.0015,0.0007,0.0022,-13.0
1.085,0.0015,-0.0015,0.0067,0.0007,-13.0
1.086,0.003,-0.003,0.0157,0.0045,-13.1
1.087,0.0052,-0.003,0.027,0.003,-13.1
1.088,0.0052,-0.003,0.0277,0.0015,-13.1
1.089,0.0045,-0.0015,0.0187,0.003,-13.1
1.09,0.0052,-0.003,0.0082,-0.0023,-13.1
1.091,0.0015,-0.0046,-0.0038,-0.003,-13.1
1.092,-0.0008,-0.0023,-0.0105,-0.0015,-13.1
1.093,-0.003,-0.0008,-0.0218,0.003,-13.2
1.094,-0.003,0.0,-0.0256,0.003,-13.2
1.095,-0.0046,0.0,-0.0203,0.0015,-13.2
1.096,-0.006,-0.0008,-0.0195,0.0007,-13.2
1.097,-0.0083,-0.0008,-0.015,-0.0015,-13.3
1.098,-0.0113,-0.0015,-0.0143,0.0007,-13.3
1.099,-0.0105,-0.0008,-0.0128,0.0,-13.3
1.1,-0.0046,0.0,-0.0113,-0.0023,-13.4
1.101,0.0,0.0,0.0015,-0.0008,-13.4
1.102,0.003,0.0015,0.0187,-0.0008,-13.4
1.103,0.0067,0.0007,0.0165,-0.0008,-13.4
1.104,0.0082,0.0015,0.0127,0.0022,-13.5
1.105,0.009,0.0007,0.0082,0.0015,-13.5
1.106,0.0067,-0.0008,0.003,0.003,-13.5
1.107,0.0082,0.0007,-0.0015,0.0015,-13.5
1.108,0.0067,-0.0008,-0.0068,0.0007,-13.6
1.109,0.0022,-0.0023,-0.0091,0.0,-13.6
1.11,-0.0008,-0.0015,-0.0068,-0.0015,-13.6
1.111,-0.0015,-0.0023,-0.0046,0.0015,-13.7
1.112,-0.0015,-0.0015,-0.0023,0.0022,-13.7
1.113,-0.0015,-0.0023,0.0007,0.0007,-13.7
1.114,-0.0015,-0.003,0.003,0.0007,-13.8
1.115,0.0007,-0.0015,0.0037,-0.0015,-13.8
1.116,0.0045,-0.003,0.0082,0.0007,-13.8
1.117,0.0045,-0.003,0.009,0.0015,-13.9
1.118,0.0022,-0.0008,0.0082,-0.0008,-13.9
1.119,0.0015,0.0,0.009,0.0,-13.9
1.12,0.0015,0.0007,0.0075,-0.0015,-14.0
1.121,0.003,0.0,0.009,-0.0015,-14.0
1.122,0.003,-0.0015,0.009,-0.003,-14.0
1.123,0.0015,-0.0023,0.0082,-0.0038,-14.1
1.124,0.0022,-0.003,0.0075,-0.0023,-14.1
1.125,0.0007,-0.0038,0.0052,-0.0015,-14.2
1.126,0.0007,-0.0038,0.0067,-0.003,-14.2
1.127,0.003,-0.003,0.0082,-0.0008,-14.3
1.128,0.0037,-0.0038,0.0067,0.0015,-14.3
1.129,0.0022,-0.0038,0.006,0.0007,-14.4
1.13,0.0007,-0.0046,0.0052,0.0007,-14.4
1.131,0.0007,-0.0046,0.003,0.0015,-14.4
1.132,-0.0008,-0.0015,0.0015,0.0015,-14.4
1.133,-0.0015,0.0015,0.0015,0.0015,-14.5
1.134,-0.0008,0.0037,0.0007,0.0022,-14.5
1.135,-0.0008,0.0022,0.003,0.003,-14.6
1.136,0.0007,0.0022,0.0007,0.003,-14.6
1.137,0.0015,0.0052,-0.0008,0.0022,-14.7
1.138,0.003,0.003,0.0007,0.0015,-14.7
1.139,0.0045,0.0,0.0015,-0.0015,-14.8
1.14,0.003,-0.0038,0.0022,-0.003,-14.9
1.141,0.003,-0.0068,0.003,-0.003,-14.9
1.142,0.0007,-0.0053,0.0037,-0.003,-14.9
1.143,0.0,-0.0068,0.0037,-0.0008,-15.0
1.144,-0.0008,-0.0075,0.0015,0.0007,-15.0
1.145,-0.0008,-0.0038,0.0007,0.0007,-15.1
1.146,0.0007,0.0015,0.0,0.0015,-15.1
1.147,-0.0008,0.0067,0.0007,-0.0008,-15.2
1.148,-0.0015,0.003,-0.0008,-0.0015,-15.3
1.149,-0.003,0.0007,-0.0038,-0.0023,-15.3
1.15,-0.0015,-0.0015,-0.0023,-0.0046,-15.4
1.151,0.0,-0.0046,-0.0023,-0.0046,-15.4
1.152,-0.0023,-0.006,-0.0015,-0.0038,-15.5
1.153,-0.0015,-0.0075,0.0007,-0.0015,-15.5
1.154,-0.0015,-0.0046,0.0015,0.0007,-15.6
1.155,-0.0015,-0.0046,0.0022,-0.0015,-15.7
1.156,-0.0008,-0.006,-0.0008,-0.0046,-15.7
1.157,-0.0008,-0.0075,-0.0015,-0.003,-15.8
1.158,-0.0008,-0.0038,-0.0015,0.0015,-15.8
1.159,-0.0008,0.0022,0.0007,0.0022,-15.9
1.16,0.0015,0.0052,0.0007,-0.0008,-16.0
1.161,0.0075,0.0045,-0.0015,-0.0015,-16.0
1.162,0.0105,0.003,-0.0008,-0.0015,-16.1
1.163,0.009,0.0015,-0.0015,-0.0008,-16.1
1.164,0.0045,-0.0015,-0.003,-0.0015,-16.2
1.165,-0.0023,0.0015,-0.0015,0.0,-16.3
1.166,-0.0075,-0.0008,-0.0008,0.0015,-16.3
1.167,-0.0128,-0.0008,0.003,0.003,-16.4
1.168,-0.0195,0.0015,0.0007,0.003,-16.5
1.169,-0.0218,0.0007,-0.0023,0.0022,-16.6
1.17,-0.0195,0.003,-0.003,0.003,-16.6
1.171,-0.0105,0.0067,-0.0015,0.003,-16.7
1.172,0.0,0.009,0.0015,0.0015,-16.7
1.173,0.006,0.0075,0.0007,-0.0008,-16.8
1.174,0.0045,0.0037,0.003,-0.0015,-16.9
1.175,0.0015,-0.0053,0.0037,-0.0015,-17.0
1.176,0.0022,-0.0143,0.0045,0.0,-17.0
1.177,0.0007,-0.0181,0.0037,-0.0015,-17.1
1.178,-0.0008,-0.0128,0.0007,-0.0008,-17.1
1.179,-0.003,0.0007,0.0007,0.0007,-17.2
1.18,-0.003,0.0075,-0.0008,0.0052,-17.3
1.181,-0.0015,0.0052,0.0015,0.003,-17.4
1.182,-0.003,0.0015,0.0022,0.0015,-17.5
1.183,0.0015,-0.0015,0.0007,0.0045,-17.6
1.184,0.0015,-0.0046,0.0045,0.0015,-17.6
1.185,0.0,-0.0091,0.0052,0.0,-17.8
1.186,0.0015,-0.0075,0.0067,-0.0008,-17.9
1.187,0.0015,-0.0068,0.0075,0.0015,-18.0
1.188,0.0015,-0.0046,0.0067,-0.003,-18.0
1.189,0.0022,-0.0053,0.006,-0.0038,-18.1
1.19,0.006,-0.0083,0.0045,-0.0015,-18.2
1.191,0.0082,-0.006,0.0037,-0.0023,-18.3
1.192,0.0067,-0.003,0.0022,0.0007,-18.4
1.193,0.0052,0.0037,0.0015,-0.0008,-18.5
1.194,0.0067,0.0082,0.0022,0.0007,-18.6
1.195,0.0075,0.0112,0.0015,0.0007,-18.7
1.196,0.0067,0.012,0.0007,-0.0008,-18.8
1.197,0.0052,0.009,0.0015,0.0007,-18.9
1.198,0.003,0.006,0.0007,-0.0023,-19.0
1.199,0.0015,-0.0015,-0.0008,-0.0023,-19.1
1.2,0.0015,-0.0038,-0.0015,0.0015,-19.2
1.201,0.003,0.0067,-0.0015,0.0037,-19.3
1.202,0.0007,0.0067,0.0022,0.0007,-19.4
1.203,-0.0015,-0.003,0.0045,-0.0046,-19.5
1.204,-0.0015,-0.0091,0.0015,-0.0053,-19.7
1.205,-0.0008,-0.0158,0.0007,-0.0046,-19.8
1.206,-0.0008,-0.0158,-0.0008,-0.0046,-19.9
1.207,0.0015,-0.012,-0.0015,-0.003,-20.0
1.208,0.0,-0.0113,-0.0008,-0.0008,-20.1
1.209,-0.0015,-0.0068,-0.0023,0.0037,-20.3
1.21,-0.0015,-0.0046,-0.003,0.0022,-20.4
1.211,-0.003,-0.003,-0.0023,-0.0015,-20.5
1.212,-0.0008,-0.0023,-0.0023,-0.0008,-20.6
1.213,-0.0008,-0.0046,0.0007,-0.0015,-20.7
1.214,-0.0008,-0.0053,0.0015,-0.003,-20.8
1.215,0.0,-0.0015,-0.0008,-0.0008,-21.0
1.216,-0.0015,-0.0015,-0.0008,0.0015,-21.1
1.217,-0.0008,-0.0068,-0.0015,0.0015,-21.2
1.218,0.0007,-0.0075,-0.0015,0.0015,-21.3
1.219,0.0015,-0.006,-0.0008,0.0022,-21.4
1.22,0.0022,-0.0008,-0.0015,0.0015,-21.6
1.221,0.0015,0.0052,-0.0015,0.0015,-21.7
1.222,0.0015,0.0105,-0.0008,0.0015,-21.9
1.223,0.0015,0.0157,0.0,0.0045,-22.1
1.224,0.0015,0.0165,-0.0008,0.0052,-22.2
1.225,0.0015,0.0142,-0.0008,0.0007,-22.4
1.226,0.0,0.0142,0.0007,0.0015,-22.5
1.227,-0.0015,0.009,-0.0015,0.003,-22.7
1.228,-0.0023,0.0045,-0.003,0.0007,-22.9
1.229,-0.003,0.003,-0.003,0.0,-23.0
1.23,-0.0023,-0.0105,-0.0023,-0.0015,-23.2
1.231,-0.0015,-0.0165,0.0,-0.0023,-23.4
1.232,0.0015,-0.0158,0.0015,-0.0068,-23.5
1.233,-0.0015,-0.0195,0.003,-0.0091,-23.7
1.234,-0.0008,-0.021,0.0037,-0.0008,-23.8
1.235,0.0007,-0.0158,0.003,0.0045,-24.0
1.236,0.0022,-0.0083,0.0045,0.0045,-24.2
1.237,0.0022,0.0007,0.0015,0.009,-24.3
1.238,0.0015,0.018,-0.0008,0.0105,-24.5
1.239,0.0015,0.027,-0.0015,0.0075,-24.6
1.24,0.0015,0.0202,-0.0046,0.0067,-24.8
1.241,0.0007,0.0142,-0.003,0.0067,-25.0
1.242,-0.0008,0.0127,-0.0008,0.0082,-25.2
1.243,-0.0023,0.0127,-0.0015,0.003,-25.5
1.244,-0.003,0.012,-0.003,0.0015,-25.7
1.245,-0.0015,0.003,-0.003,0.0007,-26.0
1.246,-0.0015,-0.0165,-0.0015,-0.0053,-26.2
1.247,-0.0023,-0.0263,0.0022,-0.0091,-26.4
1.248,-0.0008,-0.0233,0.003,-0.0181,-26.6
1.249,0.0007,-0.012,0.003,-0.0128,-26.9
1.25,0.0015,-0.0046,0.0052,-0.0015,-27.1
1.251,-0.0015,-0.0053,0.006,-0.0053,-27.4
1.252,-0.0015,-0.003,0.0045,-0.0046,-27.6
1.253,-0.0023,-0.0008,0.0015,-0.0068,-27.8
1.254,-0.0038,-0.0015,0.0007,-0.0068,-28.0
1.255,-0.0015,0.0007,0.0022,-0.0046,-28.3
1.256,-0.003,0.0015,0.0052,-0.003,-28.5
1.257,-0.0046,0.0007,0.003,0.0052,-28.8
1.258,-0.0053,0.0022,-0.0008,0.006,-29.0
1.259,-0.0068,-0.0008,0.0,0.0075,-29.2
1.26,-0.0053,-0.0091,-0.0008,0.006,-29.5
1.261,-0.0046,-0.012,-0.0015,0.0,-29.7
1.262,-0.0023,-0.0128,-0.0046,0.0037,-30.0
1.263,-0.0015,-0.0113,-0.006,0.0097,-30.2
1.264,-0.0008,-0.0046,-0.0075,0.012,-30.5
1.265,-0.0015,0.0067,-0.0083,0.012,-30.8
1.266,-0.0015,0.0195,-0.0053,0.0157,-31.1
1.267,-0.003,0.027,-0.003,0.0172,-31.3
1.268,-0.0015,0.0195,-0.0015,0.009,-31.6
1.269,0.0007,0.0052,-0.0046,0.0052,-31.9
1.27,-0.0015,-0.0008,-0.0046,0.0037,-32.2
1.271,0.0,-0.0008,-0.003,0.0022,-32.4
1.272,0.003,-0.0015,-0.0038,0.0,-32.7
1.273,0.0045,-0.0023,-0.0046,-0.0046,-33.0
1.274,0.0045,-0.003,-0.0046,-0.0053,-33.3
1.275,0.0045,-0.003,-0.003,-0.0091,-33.5
1.276,0.0052,-0.003,-0.0015,-0.0098,-33.8
1.277,0.0045,-0.003,0.0,-0.0068,-34.1
1.278,0.0052,-0.0008,0.0015,-0.0053,-34.3
1.279,0.0052,0.0015,0.0022,-0.0083,-34.6
1.28,0.0045,0.0022,0.003,-0.0068,-34.9
1.281,0.0045,0.0007,0.0045,-0.0008,-35.1
1.282,0.0052,-0.0015,0.0045,0.0007,-35.4
1.283,0.0045,-0.0046,0.0045,-0.0015,-35.7
1.284,0.0022,-0.0075,0.0045,-0.0015,-36.0
1.285,0.0015,-0.0113,0.0052,-0.0008,-36.2
1.286,0.003,-0.0158,0.0082,-0.0046,-36.5
1.287,0.0007,-0.0203,0.0097,-0.0038,-36.8
1.288,0.0,-0.0165,0.0067,0.0037,-37.0
1.289,0.0007,-0.006,0.0045,0.006,-37.3
1.29,-0.0008,-0.006,0.0067,0.0082,-37.6
1.291,0.0,-0.0053,0.009,0.0097,-37.9
1.292,-0.0008,-0.0015,0.0097,0.009,-38.2
1.293,-0.0015,0.0022,0.012,0.0082,-38.4
1.294,-0.0008,0.012,0.012,0.0045,-38.7
1.295,0.0007,0.0142,0.0142,-0.0023,-39.0
1.296,0.0015,0.0135,0.012,-0.0091,-39.2
1.297,0.0015,0.0067,0.0105,-0.0105,-39.5
1.298,0.0015,0.0015,0.012,-0.006,-39.8
1.299,0.0007,0.003,0.0105,-0.003,-40.1
1.3,0.0015,-0.0083,0.009,-0.0008,-40.4
1.301,0.0015,-0.0173,0.0082,0.0037,-40.6
1.302,0.0007,-0.0165,0.0105,0.006,-40.9
1.303,-0.0008,-0.0075,0.0127,0.0037,-41.2
1.304,-0.0008,-0.003,0.0127,-0.0008,-41.5
1.305,-0.0008,-0.003,0.015,-0.0015,-41.9
1.306,-0.0008,0.0045,0.0135,-0.003,-42.1
1.307,0.0007,0.003,0.012,-0.0053,-42.4
1.308,0.0,-0.003,0.0105,-0.003,-42.8
1.309,0.0,-0.0053,0.0075,0.0015,-43.1
1.31,-0.0008,-0.0075,0.0082,0.003,-43.4
1.311,0.0015,-0.0091,0.0105,0.0045,-43.7
1.312,0.0037,-0.0105,0.0097,0.0022,-44.0
1.313,0.003,-0.0068,0.0105,-0.0091,-44.3
1.314,0.0037,-0.0023,0.0097,-0.0105,-44.6
1.315,0.0022,0.0007,0.0082,-0.0068,-44.9
1.316,0.003,0.0052,0.0105,-0.0083,-45.2
1.317,0.0007,0.0015,0.0097,-0.0068,-45.5
1.318,-0.0008,-0.0015,0.0067,-0.0113,-45.8
1.319,0.003,0.0015,0.0052,-0.021,-46.1
1.32,0.0015,0.0045,0.0015,-0.0308,-46.4
1.321,0.0015,0.0007,0.0007,-0.0293,-46.7
1.322,0.0015,-0.0046,-0.0008,-0.0173,-46.9
1.323,0.0,-0.003,0.0,-0.0053,-47.2
1.324,0.0007,-0.0015,0.0007,0.0097,-47.5
1.325,0.0015,-0.0023,0.0,0.021,-47.8
1.326,0.0015,-0.0008,0.0007,0.0292,-48.1
1.327,0.0007,0.003,0.0015,0.0307,-48.3
1.328,0.0007,0.0045,0.0022,0.0277,-48.6
1.329,0.0,0.0022,0.0007,0.0277,-48.9
1.33,-0.0008,0.003,0.0007,0.0315,-49.2
1.331,0.0,0.0045,0.0022,0.0277,-49.5
1.332,-0.0015,0.0045,0.003,0.0195,-49.7
1.333,-0.003,0.0015,0.0045,0.0105,-50.0
1.334,-0.0046,0.0,0.0045,-0.0038,-50.3
1.335,-0.0038,0.0015,0.0022,-0.0113,-50.5
1.336,-0.003,-0.0008,0.003,-0.0143,-50.8
1.337,-0.003,-0.003,0.003,-0.0181,-51.1
1.338,-0.0015,-0.003,0.0007,-0.0203,-51.4
1.339,-0.003,-0.0015,-0.0015,-0.0165,-51.7
1.34,-0.0038,-0.0008,-0.0015,-0.006,-52.0
1.341,-0.0038,-0.0023,-0.003,-0.0083,-52.2
1.342,-0.0038,-0.003,-0.0053,-0.0053,-52.4
1.343,-0.0038,-0.0015,-0.0068,0.0007,-52.7
1.344,-0.003,-0.0015,-0.0053,0.003,-52.9
1.345,-0.003,0.0,-0.003,0.0067,-53.1
1.346,-0.0015,-0.0008,-0.0023,0.003,-53.4
1.347,-0.0008,-0.003,-0.003,-0.0008,-53.6
1.348,-0.0008,-0.006,-0.0046,-0.0015,-53.9
1.349,-0.0023,-0.0046,-0.0053,0.0007,-54.1
1.35,-0.0023,0.0015,-0.0046,0.0015,-54.4
1.351,-0.0015,0.0045,-0.0053,-0.0008,-54.6
1.352,0.0007,0.006,-0.0068,0.0007,-54.9
1.353,0.0007,0.0052,-0.0053,-0.0015,-55.1
1.354,0.0015,0.003,-0.0053,-0.0038,-55.4
1.355,0.0015,0.0007,-0.0046,-0.0038,-55.6
1.356,0.003,-0.0015,-0.0046,-0.0038,-55.8
1.357,0.0015,-0.0015,-0.0053,-0.0015,-56.1
1.358,0.0007,-0.0023,-0.0046,-0.0008,-56.3
1.359,0.0007,-0.0038,-0.003,0.0015,-56.6
1.36,-0.0008,-0.0068,-0.0015,0.0015,-56.9
1.361,-0.0008,-0.0098,-0.0008,-0.0008,-57.1
1.362,-0.0008,-0.0068,-0.0015,-0.003,-57.2
1.363,-0.0008,-0.003,-0.003,-0.003,-57.5
1.364,-0.0015,-0.0046,-0.0038,0.0,-57.7
1.365,-0.003,-0.0068,-0.0038,-0.003,-57.9
1.366,-0.003,-0.0046,-0.0038,-0.0038,-58.1
1.367,-0.003,-0.0023,-0.0046,-0.0008,-58.3
1.368,-0.0015,-0.003,-0.0068,0.0,-58.5
1.369,0.0,-0.0015,-0.006,-0.0015,-58.8
1.37,0.0007,0.003,-0.0053,-0.0008,-59.0
1.371,0.0007,0.0067,-0.0053,0.0022,-59.2
1.372,0.0015,0.0067,-0.0015,0.003,-59.4
1.373,0.0015,0.0037,0.0007,0.0045,-59.6
1.374,0.003,0.0015,-0.0008,0.0045,-59.9
1.375,0.003,-0.006,-0.0008,0.0082,-60.0
1.376,0.0037,-0.0083,0.0007,0.0127,-60.3
1.377,0.0045,-0.0083,0.0007,0.0052,-60.5
1.378,0.0007,-0.0165,0.0007,-0.0008,-60.7
1.379,0.0015,-0.024,0.0,0.0037,-60.9
1.38,0.0007,-0.024,0.0007,0.0067,-61.2
1.381,-0.0008,-0.0181,0.0015,0.0082,-61.3
1.382,-0.0008,-0.0091,0.0007,0.012,-61.5
1.383,0.0,-0.0068,0.0007,0.0135,-61.7
1.384,0.0007,-0.003,0.0007,0.0097,-61.9
1.385,-0.0008,0.015,0.0,0.0052,-62.1
1.386,-0.0015,0.0382,0.0007,0.0,-62.2
1.387,-0.003,0.0367,0.0,-0.0068,-62.5
1.388,0.0007,0.0165,-0.0015,-0.0098,-62.6
1.389,-0.0008,0.0105,-0.0008,-0.0068,-62.8
1.39,-0.0008,0.003,-0.0023,-0.0075,-63.0
1.391,-0.0023,0.0007,-0.0023,-0.0038,-63.2
1.392,-0.0023,0.0045,-0.0046,-0.0008,-63.4
1.393,0.0007,0.0007,-0.0046,-0.0015,-63.6
1.394,0.0015,0.0015,-0.003,-0.003,-63.8
1.395,0.003,-0.0008,-0.003,-0.003,-64.0
1.396,0.0015,0.0,-0.0046,0.0007,-64.2
1.397,0.0007,-0.0015,-0.0046,0.0015,-64.4
1.398,-0.0008,-0.0008,-0.003,0.0015,-64.6
1.399,0.0007,-0.0008,-0.0015,0.0007,-64.8
1.4,0.0007,-0.0008,0.0,-0.0008,-65.0
1.401,0.0007,0.0,-0.0008,-0.0015,-65.0
1.402,0.0015,-0.0008,-0.0008,-0.0046,-65.2
1.403,0.0015,0.0007,0.0007,-0.0083,-65.3
1.404,0.0007,0.0,0.0007,-0.0091,-65.3
1.405,0.0007,-0.0008,0.003,-0.0038,-65.5
1.406,-0.0008,-0.0046,0.0045,0.0007,-65.6
1.407,-0.0008,-0.0068,0.0052,0.0015,-65.7
1.408,-0.0023,-0.0053,0.0052,0.0015,-65.7
1.409,-0.0023,-0.0038,0.006,0.0015,-65.9
1.41,-0.0023,-0.0015,0.006,0.0015,-66.0
1.411,-0.0008,-0.0008,0.0052,0.0,-66.1
1.412,0.0015,-0.0008,0.0045,-0.0015,-66.2
1.413,0.0007,-0.003,0.0007,-0.0008,-66.3
1.414,0.0007,-0.003,-0.0015,-0.0008,-66.4
1.415,0.0015,-0.003,0.0015,-0.0008,-66.5
1.416,0.0007,-0.003,0.0015,0.0015,-66.6
1.417,0.0007,-0.0053,0.003,0.0007,-66.7
1.418,-0.0008,-0.0053,0.0015,-0.0015,-66.8
1.419,0.0007,-0.0046,0.0,-0.0038,-66.9
1.42,0.0007,-0.0008,0.0007,-0.006,-67.1
1.421,-0.0008,0.003,-0.0015,-0.0053,-67.1
1.422,-0.0008,0.0022,-0.0023,-0.0046,-67.1
1.423,-0.0008,0.0052,-0.0008,-0.003,-67.1
1.424,0.0007,0.0045,-0.0015,0.0052,-67.1
1.425,0.0,-0.003,0.0007,0.0045,-67.2
1.426,0.0015,-0.0128,0.0045,-0.0046,-67.2
1.427,0.003,-0.0128,0.0037,0.003,-67.3
1.428,0.0022,-0.0053,0.003,0.0015,-67.3
1.429,0.0022,-0.0046,0.0007,-0.0015,-67.3
1.43,0.0015,-0.003,-0.0008,0.0052,-67.4
1.431,0.0007,-0.0008,0.0007,0.0037,-67.4
1.432,0.0007,-0.0015,0.0007,0.0105,-67.5
1.433,0.0007,0.0,0.0007,0.0127,-67.5
1.434,0.0007,0.0007,0.0045,0.0067,-67.5
1.435,-0.0008,0.003,0.0045,0.003,-67.5
1.436,0.0,0.0022,0.0052,0.0015,-67.6
1.437,0.0015,0.0022,0.0067,0.006,-67.6
1.438,0.0015,0.0045,0.006,0.0052,-67.6
1.439,0.003,0.0037,0.0067,0.003,-67.7
1.44,0.003,0.0037,0.0067,0.0,-67.8
1.441,0.0045,0.003,0.0045,-0.0015,-67.8
1.442,0.003,0.0022,0.0045,-0.0008,-67.8
1.443,0.0007,0.0022,0.0045,0.0007,-67.8
1.444,0.0,0.0007,0.0052,-0.0015,-67.8
1.445,0.0007,0.0007,0.003,-0.0053,-67.8
1.446,0.0007,0.0022,0.0015,-0.0053,-67.8
1.447,-0.0015,0.0007,0.003,-0.0068,-67.8
1.448,-0.0023,0.0,0.0015,-0.0083,-67.8
1.449,-0.003,0.0007,0.0015,-0.0053,-67.8
1.45,-0.003,0.0007,0.003,-0.0046,-67.9
1.451,-0.0023,0.0,0.0022,-0.0038,-67.9
1.452,-0.003,-0.0015,0.0022,-0.003,-67.9
1.453,-0.0038,-0.0008,0.0007,0.0007,-67.9
1.454,-0.0046,-0.0008,0.0007,0.0045,-67.9
1.455,-0.0038,-0.0008,-0.0008,0.0015,-67.9
1.456,-0.0046,-0.0008,0.0015,0.0007,-67.9
1.457,-0.0046,-0.0015,0.0037,0.0015,-67.9
1.458,-0.0015,-0.0015,0.003,0.003,-68.0
1.459,-0.0023,-0.0015,0.0022,0.003,-68.0
1.46,-0.0046,-0.0015,0.0,0.0007,-68.0
1.461,-0.003,-0.0023,0.0007,0.0007,-68.0
1.462,-0.0023,-0.003,0.003,-0.0015,-68.0
1.463,-0.0008,-0.0038,0.003,0.0007,-67.9
1.464,0.0007,-0.003,0.0015,0.0015,-67.9
1.465,0.0007,-0.0023,0.0045,0.0015,-67.9
1.466,0.003,-0.0015,0.003,0.0015,-67.8
1.467,0.003,-0.0023,0.003,-0.0015,-67.8
1.468,0.0022,-0.0053,0.0045,0.0007,-67.8
1.469,0.0037,-0.006,-0.0008,0.0,-67.8
1.47,0.0022,-0.0038,-0.0015,-0.0008,-67.7
1.471,0.0015,-0.0023,-0.0015,0.0007,-67.7
1.472,0.0007,-0.0023,-0.0023,-0.0008,-67.7
1.473,0.0,-0.0023,-0.0008,0.0,-67.6
1.474,-0.0015,0.0007,0.0007,-0.0008,-67.6
1.475,-0.0023,0.0022,0.0015,-0.0008,-67.6
1.476,-0.0015,0.0007,0.0007,-0.0015,-67.5
1.477,-0.0015,-0.0008,0.0015,-0.0023,-67.5
1.478,-0.0008,-0.0015,0.0007,-0.0008,-67.5
1.479,-0.0008,-0.0015,0.0007,-0.0015,-67.5
1.48,-0.0008,-0.0015,0.0007,-0.0008,-67.5
1.481,0.0007,-0.0008,0.0007,0.0007,-67.4
1.482,-0.0008,-0.0015,0.0015,0.0007,-67.3
1.483,0.0007,-0.0008,0.0007,0.0007,-67.2
1.484,0.0015,-0.0008,0.0,-0.0008,-67.1
1.485,0.0015,-0.0015,0.0,-0.0015,-67.1
1.486,0.0007,-0.0015,0.0,-0.0015,-67.0
1.487,0.0,-0.0023,0.0007,-0.0038,-66.9
1.488,0.0015,-0.003,-0.0008,-0.0038,-66.8
1.489,0.0015,-0.003,0.0007,-0.003,-66.7
1.49,0.0007,-0.003,0.0045,-0.0068,-66.6
1.491,0.0,-0.0015,0.0052,-0.006,-66.6
1.492,0.0007,-0.0023,0.0052,-0.0053,-66.5
1.493,0.0015,-0.003,0.0052,-0.0023,-66.4
1.494,0.0015,-0.0015,0.0045,0.0015,-66.3
1.495,0.0007,0.0,0.0045,0.0037,-66.2
1.496,-0.0023,-0.0008,0.003,0.0067,-66.2
1.497,-0.0046,-0.0008,0.003,0.0052,-66.1
1.498,-0.0046,0.0007,0.0015,0.0022,-66.0
1.499,-0.0053,-0.0015,0.0,0.0015,-65.9
1.5,-0.0046,-0.0008,-0.0008,0.0007,-65.8
1.501,-0.003,0.0,-0.003,0.0022,-65.7
1.502,-0.0023,0.0015,-0.0038,0.003,-65.6
1.503,-0.0015,0.0015,-0.0008,0.0015,-65.4
1.504,-0.0015,0.0,0.0007,0.0007,-65.3
1.505,-0.0023,-0.0015,-0.0008,0.0,-65.2
1.506,-0.0015,-0.0015,-0.0015,0.0,-65.0
1.507,-0.0008,-0.0015,0.0007,-0.0008,-64.9
1.508,-0.0008,-0.0046,0.003,0.0007,-64.8
1.509,-0.0008,-0.0068,0.0007,-0.0008,-64.6
1.51,0.0007,-0.0053,0.0015,-0.0015,-64.5
1.511,0.0007,-0.0038,0.0,-0.0015,-64.4
1.512,0.0015,-0.003,0.0015,-0.0008,-64.3
1.513,0.0045,-0.003,0.0037,0.0,-64.1
1.514,0.0015,-0.0015,0.0015,0.0,-64.0
1.515,0.0015,-0.003,0.0022,0.0022,-63.9
1.516,0.0015,-0.0053,0.0022,0.003,-63.7
1.517,0.0015,-0.0053,0.0015,0.0007,-63.6
1.518,0.0015,-0.0046,0.0037,0.0015,-63.5
1.519,0.0,-0.003,0.0015,0.003,-63.3
1.52,0.0,-0.0046,0.0007,0.0007,-63.2
1.521,-0.0015,-0.0038,0.0007,0.0,-63.0
1.522,-0.0015,-0.0015,-0.0008,0.0,-62.9
1.523,0.0007,-0.0015,0.0007,-0.0008,-62.7
1.524,0.0007,-0.0015,0.0015,-0.003,-62.6
1.525,0.0007,-0.0015,0.003,-0.0038,-62.4
1.526,0.0007,-0.003,0.0045,-0.0023,-62.2
1.527,-0.0015,-0.0023,0.0015,-0.0023,-62.1
1.528,-0.0008,-0.0023,0.0015,-0.003,-61.9
1.529,-0.0008,-0.0015,0.0015,-0.0023,-61.7
1.53,0.0,0.0015,0.0007,-0.0023,-61.6
1.531,0.0,0.003,0.0015,-0.0008,-61.4
1.532,0.0,-0.0008,0.0022,0.0007,-61.2
1.533,-0.0015,-0.0015,-0.0008,0.0007,-61.1
1.534,-0.003,0.0007,0.0015,0.0015,-60.9
1.535,-0.003,0.0022,0.003,0.003,-60.8
1.536,-0.0023,0.0015,0.0037,0.003,-60.6
1.537,-0.0015,0.0037,0.0037,0.0045,-60.5
1.538,-0.0015,0.0052,0.0022,0.0045,-60.3
1.539,0.0007,0.003,0.0022,0.0037,-60.2
1.54,0.0015,0.0015,0.003,0.0015,-60.0
1.541,0.0022,0.0007,0.0015,0.0,-59.8
1.542,0.0037,-0.0015,0.0007,0.0,-59.6
1.543,0.0045,-0.0046,0.0007,0.0007,-59.4
1.544,0.0037,-0.003,-0.0008,0.0,-59.2
1.545,0.0,-0.003,-0.0008,0.0,-59.0
1.546,-0.0023,-0.0053,0.0007,0.0,-58.8
1.547,-0.0008,-0.0046,0.0015,0.0007,-58.6
1.548,0.0,-0.0023,0.0037,-0.0008,-58.5
1.549,-0.0015,-0.0015,0.0045,-0.0023,-58.2
1.55,0.0007,-0.0008,0.0045,-0.0015,-58.1
1.551,0.0,0.0007,0.0037,-0.0008,-57.9
1.552,-0.003,0.003,0.0037,0.0007,-57.6
1.553,-0.003,0.003,0.0045,-0.0008,-57.5
1.554,-0.0023,0.0007,0.0045,-0.0023,-57.3
1.555,-0.0015,0.0022,0.0045,-0.0023,-57.1
1.556,-0.0008,0.0022,0.0052,-0.0023,-56.9
1.557,0.0007,0.0007,0.003,0.0,-56.7
1.558,0.0,0.0037,0.003,0.003,-56.5
1.559,-0.0008,0.003,0.0045,0.003,-56.3
1.56,0.0015,0.0007,0.0022,0.0015,-56.1
1.561,-0.0008,0.003,0.003,0.0,-55.9
1.562,-0.0008,0.0052,0.0007,0.0015,-55.7
1.563,0.0,0.003,0.0007,0.0015,-55.4
1.564,-0.0008,-0.003,0.0007,0.0037,-55.2
1.565,-0.0015,-0.0046,-0.0015,-0.0008,-55.0
1.566,-0.0015,-0.003,-0.0015,-0.0015,-54.8
1.567,0.0,-0.0023,0.0,0.0,-54.5
1.568,0.0015,0.0015,0.003,0.0007,-54.3
1.569,0.0015,0.0022,0.003,0.003,-54.1
1.57,0.0007,0.0,0.0022,0.0007,-53.9
1.571,0.0015,-0.0008,0.003,0.0015,-53.7
1.572,0.0015,-0.0015,0.003,0.003,-53.5
1.573,0.003,-0.0023,0.0045,0.0045,-53.2
1.574,0.0015,-0.003,0.0045,0.0052,-53.0
1.575,0.0022,-0.0053,0.0037,0.003,-52.8
1.576,0.003,-0.0083,0.0015,0.0015,-52.6
1.577,0.0007,-0.0091,0.0007,0.0015,-52.3
1.578,0.0007,-0.0053,-0.0008,0.0,-52.1
1.579,0.0007,-0.0046,-0.0008,-0.0015,-51.9
1.58,0.0015,-0.0038,-0.0023,-0.003,-51.7
1.581,0.0,-0.003,-0.0023,-0.003,-51.4
1.582,-0.0015,-0.006,-0.0008,-0.0046,-51.2
1.583,-0.0008,-0.0023,-0.0038,-0.003,-50.9
1.584,0.0007,0.0007,-0.0046,-0.0015,-50.7
1.585,0.0015,0.0007,-0.0015,-0.0023,-50.4
1.586,0.0022,-0.0008,-0.0015,-0.0015,-50.1
1.587,0.0007,-0.0038,-0.0008,-0.003,-49.9
1.588,0.0,-0.0046,0.0007,-0.003,-49.6
1.589,0.0,-0.0023,0.0015,-0.0015,-49.4
1.59,-0.0015,-0.0008,0.0015,-0.0023,-49.1
1.591,0.0,0.0015,0.003,-0.0015,-48.9
1.592,-0.0015,0.003,0.0052,0.0,-48.6
1.593,-0.0015,0.0045,0.006,0.0007,-48.4
1.594,0.0007,0.0052,0.0045,0.0045,-48.2
1.595,0.0,0.0052,0.0052,0.0037,-47.9
1.596,0.0015,-0.0015,0.0045,-0.0008,-47.6
1.597,0.0007,-0.0083,0.0037,-0.0008,-47.4
1.598,-0.0015,-0.0053,0.003,0.0015,-47.1
1.599,-0.0023,-0.0053,0.0015,0.0,-46.9
1.6,-0.003,-0.0046,0.0022,-0.0008,-46.6
1.601,-0.003,-0.0015,0.0015,-0.0008,-46.3
1.602,-0.003,-0.0015,0.0,-0.0008,-46.0
1.603,-0.0038,0.0007,-0.0015,0.0,-45.7
1.604,-0.0015,-0.0023,-0.003,-0.0015,-45.5
1.605,-0.0023,-0.0015,0.0,0.0015,-45.1
1.606,-0.0008,-0.006,-0.0008,0.0,-44.8
1.607,0.0015,-0.0091,0.0007,0.0022,-44.6
1.608,0.0,-0.0053,0.0015,0.003,-44.2
1.609,0.0,-0.0038,-0.0008,0.0022,-44.0
1.61,0.0007,-0.0023,-0.0015,0.0015,-43.7
1.611,0.0015,-0.003,0.0,-0.0008,-43.3
1.612,0.0015,-0.0023,-0.0008,0.0015,-43.1
1.613,0.0,-0.0015,-0.0015,0.0007,-42.8
1.614,0.0007,-0.0008,0.0007,0.0015,-42.5
1.615,0.0015,-0.0015,0.0007,0.003,-42.2
1.616,0.0007,0.0007,0.0022,0.0022,-41.9
1.617,0.0015,0.0,0.0045,0.0015,-41.6
1.618,0.0007,0.0022,0.0015,0.0007,-41.3
1.619,0.0015,0.0045,0.003,0.0045,-41.0
1.62,0.0,0.0075,0.003,0.0052,-40.7
1.621,-0.0015,0.0105,0.0037,0.0075,-40.4
1.622,-0.0008,0.006,0.0015,0.003,-40.1
1.623,0.0007,-0.0008,0.0022,-0.003,-39.7
1.624,0.0015,-0.0083,0.0052,-0.0046,-39.4
1.625,0.003,-0.0098,0.0015,-0.0091,-39.1
1.626,0.0045,-0.012,-0.0023,-0.0075,-38.8
1.627,0.003,-0.0098,-0.0015,-0.0046,-38.5
1.628,0.0007,-0.0046,-0.0023,-0.0046,-38.2
1.629,0.0045,-0.003,-0.003,-0.003,-37.8
1.63,0.0067,-0.0008,-0.0023,0.0007,-37.5
1.631,0.003,-0.0008,0.0007,0.0015,-37.2
1.632,0.0007,-0.0015,0.0015,-0.0008,-36.9
1.633,-0.0008,0.0,-0.0008,0.0,-36.5
1.634,-0.0008,-0.0023,-0.003,0.0007,-36.2
1.635,0.0007,-0.0015,-0.0015,0.0045,-35.9
1.636,0.0007,0.0,0.0,0.003,-35.6
1.637,-0.0008,0.0,-0.0008,0.003,-35.3
1.638,-0.003,0.0015,-0.0008,0.003,-35.0
1.639,-0.0046,0.003,-0.0008,0.0007,-34.7
1.64,-0.0068,-0.0015,0.0022,0.0,-34.3
1.641,-0.0075,-0.003,0.0037,-0.0008,-34.0
1.642,-0.0046,-0.0015,0.0015,0.0007,-33.7
1.643,-0.0046,-0.003,0.0007,0.0,-33.4
1.644,-0.0015,-0.003,-0.0008,-0.0015,-33.1
1.645,0.0,-0.0015,0.0007,-0.0008,-32.7
1.646,-0.0008,0.003,0.0015,0.0,-32.4
1.647,0.0007,-0.0008,0.0,-0.0008,-32.1
1.648,0.003,-0.0083,0.0007,-0.003,-31.8
1.649,0.003,-0.0091,0.0007,-0.0023,-31.5
1.65,0.003,-0.0068,-0.0008,-0.003,-31.1
1.651,0.0022,-0.0053,-0.0015,-0.0068,-30.8
1.652,0.0007,-0.0038,-0.003,-0.0053,-30.5
1.653,0.0007,-0.003,-0.0008,-0.003,-30.2
1.654,0.0007,0.0015,0.0007,-0.0015,-29.9
1.655,0.003,0.0015,0.0015,-0.0015,-29.5
1.656,0.0052,0.0022,0.003,0.0015,-29.2
1.657,0.0037,0.0037,0.0015,0.003,-28.9
1.658,0.0037,0.003,0.0015,0.003,-28.6
1.659,0.003,0.006,0.0007,0.0022,-28.3
1.66,0.0097,0.0075,0.0007,0.003,-27.9
1.661,0.0157,0.0075,0.0,0.0037,-27.6
1.662,0.009,0.003,0.0,0.003,-27.4
1.663,0.0,-0.0023,-0.0008,-0.0008,-27.0
1.664,-0.0083,-0.0053,0.0015,-0.003,-26.8
1.665,-0.0135,-0.0075,0.0037,-0.0038,-26.5
1.666,-0.0143,-0.0091,0.0037,-0.0068,-26.1
1.667,-0.012,-0.0053,0.0045,-0.0038,-25.9
1.668,-0.0091,-0.003,0.0015,0.0007,-25.6
1.669,-0.006,-0.003,0.0,0.003,-25.3
1.67,-0.0023,0.0,0.0007,0.0045,-25.0
1.671,0.0007,0.0022,0.0007,0.0037,-24.7
1.672,0.006,0.003,-0.003,0.0,-24.4
1.673,0.0097,0.0015,0.0015,0.0,-24.1
1.674,0.0112,0.0007,0.0082,0.0007,-23.8
1.675,0.0105,0.0007,0.0105,0.0015,-23.5
1.676,0.0067,0.003,0.0127,-0.0008,-23.2
1.677,0.003,0.0007,0.009,-0.0015,-22.9
1.678,-0.0008,-0.0015,0.0067,-0.0023,-22.6
1.679,0.0,-0.0015,0.006,-0.0046,-22.3
1.68,-0.0038,-0.0046,0.0052,-0.0015,-22.0
1.681,-0.0053,-0.003,0.0037,0.0,-21.8
1.682,-0.0023,0.0007,0.0045,0.0015,-21.6
1.683,-0.0015,0.0015,0.0022,0.003,-21.3
1.684,-0.0008,0.0,-0.0015,0.0015,-21.1
1.685,0.0007,-0.003,0.0007,0.0007,-20.8
1.686,0.0015,-0.0046,-0.0008,0.003,-20.6
1.687,0.0015,-0.0023,-0.0015,0.0052,-20.3
1.688,0.003,0.0,0.0007,0.0045,-20.1
1.689,0.003,-0.0008,-0.0015,0.0045,-19.9
1.69,0.0007,0.0015,-0.0008,0.0045,-19.6
1.691,0.003,0.003,-0.0008,0.0022,-19.4
1.692,0.0045,0.003,-0.0015,0.0007,-19.2
1.693,0.0022,0.0007,0.0,-0.0008,-18.9
1.694,0.0007,0.0007,0.0007,-0.0023,-18.7
1.695,-0.0008,-0.0015,0.003,-0.003,-18.5
1.696,-0.0023,-0.006,0.0007,-0.003,-18.2
1.697,-0.0023,-0.0068,0.0015,-0.0023,-18.0
1.698,-0.003,-0.006,0.0015,-0.003,-17.7
1.699,-0.003,-0.0008,0.0007,-0.0023,-17.5
1.7,0.0015,0.0075,0.0022,-0.0008,-17.3
1.701,0.0082,0.0127,0.0007,0.003,-17.1
1.702,0.0112,0.0135,-0.0023,0.006,-17.0
1.703,0.0075,0.0037,-0.0023,0.0045,-16.8
1.704,0.0022,-0.0075,-0.003,-0.0023,-16.7
1.705,-0.0046,-0.015,-0.003,-0.0091,-16.5
1.706,-0.0083,-0.0233,-0.0015,-0.0143,-16.3
1.707,-0.0075,-0.0218,0.0007,-0.0105,-16.2
1.708,-0.0068,-0.012,-0.0008,-0.0053,-16.0
1.709,-0.0075,-0.0053,-0.0038,-0.0008,-15.8
1.71,-0.0053,0.0007,-0.0046,0.0052,-15.7
1.711,-0.0053,0.0022,-0.0023,0.0022,-15.5
1.712,-0.0083,-0.0008,-0.003,-0.0008,-15.3
1.713,-0.0046,-0.0015,0.0015,0.0007,-15.2
1.714,-0.0023,-0.0015,0.0097,0.0015,-15.0
1.715,0.0,-0.003,0.0142,0.003,-14.9
1.716,0.0015,-0.0015,0.0112,0.0052,-14.7
1.717,0.0022,-0.0008,0.003,0.0015,-14.5
1.718,0.0045,0.0015,-0.0046,-0.0053,-14.4
1.719,0.0037,0.0052,-0.0135,-0.0091,-14.2
1.72,0.0052,0.012,-0.0165,-0.0113,-14.0
1.721,0.0082,0.0112,-0.0158,-0.012,-14.0
1.722,0.0112,0.003,-0.012,-0.0113,-13.8
1.723,0.0105,-0.0046,-0.0068,-0.0046,-13.7
1.724,0.0052,-0.0068,-0.003,-0.0008,-13.6
1.725,0.0,-0.0128,0.003,-0.0068,-13.5
1.726,-0.0023,-0.0128,0.0052,-0.0083,-13.4
1.727,-0.0015,-0.0105,0.0082,0.0045,-13.3
1.728,-0.0015,-0.0128,0.0097,0.0232,-13.2
1.729,-0.003,-0.0128,0.0052,0.033,-13.1
1.73,-0.0015,-0.0158,0.0052,0.0232,-13.0
1.731,0.0,-0.0173,0.009,0.0007,-12.9
1.732,0.0007,0.0045,0.0105,-0.0015,-12.7
1.733,0.0007,0.0307,0.009,-0.0008,-12.6
1.734,0.0007,0.0352,0.0067,-0.0046,-12.5
1.735,-0.0008,0.027,0.0022,-0.0046,-12.4
1.736,0.0,0.0105,-0.0023,-0.012,-12.3
1.737,-0.0015,0.0022,-0.0023,-0.012,-12.2
1.738,-0.0023,0.0015,-0.003,-0.0188,-12.1
1.739,0.003,-0.0015,0.0,-0.003,-12.0
1.74,0.009,0.0097,0.0015,0.0465,-11.9
1.741,0.0075,0.012,0.0007,0.072,-11.8
1.742,0.0015,-0.0053,0.0007,0.048,-11.7
1.743,-0.003,-0.0256,-0.0015,0.006,-11.7
1.744,-0.0083,-0.0203,-0.003,-0.0165,-11.6
1.745,-0.0091,-0.003,-0.0046,-0.024,-11.6
1.746,-0.0083,0.0,-0.0046,-0.012,-11.5
1.747,-0.006,0.006,0.0022,-0.0015,-11.4
1.748,-0.0015,0.0142,0.0067,-0.0015,-11.3
1.749,-0.0015,0.0022,0.009,0.003,-11.3
1.75,-0.0008,-0.0158,0.0082,-0.0075,-11.2
1.751,0.0,-0.0113,0.0052,-0.0113,-11.2
1.752,0.0007,-0.0181,0.0067,-0.0158,-11.1
1.753,0.0045,-0.0278,0.006,-0.0181,-11.0
1.754,0.0067,-0.0218,0.0045,-0.0165,-11.0
1.755,0.0067,-0.0091,0.006,-0.0256,-10.9
1.756,0.0052,0.0097,0.0067,-0.0256,-10.8
1.757,-0.0023,0.0135,0.0045,-0.0218,-10.8
1.758,-0.0053,0.0105,-0.0008,-0.0165,-10.7
1.759,-0.0053,-0.0015,-0.0046,-0.0218,-10.6
1.76,-0.0068,-0.0165,-0.003,-0.0323,-10.6
1.761,-0.0015,-0.0008,-0.0038,-0.0233,-10.6
1.762,0.0,0.0127,-0.0046,0.0082,-10.5
1.763,-0.003,0.0022,-0.0023,0.0375,-10.5
1.764,0.003,0.0172,-0.0015,0.0382,-10.5
1.765,0.0202,0.0187,-0.0015,0.0217,-10.5
1.766,0.0262,0.0015,0.0,0.0127,-10.5
1.767,0.009,0.0022,-0.0008,0.0127,-10.5
1.768,-0.0015,-0.0015,-0.0008,-0.0098,-10.5
1.769,-0.012,0.018,0.0015,-0.0068,-10.4
1.77,-0.0203,0.045,0.0015,-0.0015,-10.4
1.771,-0.0165,0.0225,0.003,-0.0181,-10.4
1.772,-0.0188,-0.0346,0.0082,-0.0075,-10.4
1.773,-0.0173,-0.0773,0.0225,-0.0015,-10.4
1.774,-0.012,-0.0915,0.0442,-0.0068,-10.4
1.775,-0.0068,-0.078,0.0615,-0.0256,-10.4
1.776,-0.003,-0.033,0.0495,-0.0293,-10.4
1.777,-0.003,0.0105,0.0165,-0.006,-10.4
1.778,0.0015,0.0465,-0.0158,0.0255,-10.4
1.779,0.012,0.072,-0.0465,0.0592,-10.3
1.78,0.0157,0.0322,-0.063,0.042,-10.3
1.781,0.0127,0.0082,-0.0683,0.03,-10.3
1.782,0.0067,0.0435,-0.063,0.0465,-10.3
1.783,-0.0015,0.0637,-0.048,0.0352,-10.4
1.784,-0.003,0.0652,-0.0375,0.0202,-10.4
1.785,-0.0038,0.0157,-0.021,0.0105,-10.4
1.786,-0.0038,0.0067,-0.003,0.003,-10.4
1.787,-0.0008,0.0202,0.0097,-0.0068,-10.5
1.788,-0.0015,0.027,0.0315,-0.0068,-10.5
1.789,-0.0015,0.066,0.0547,-0.0068,-10.5
1.79,0.0007,0.0442,0.054,-0.0038,-10.6
1.791,0.0015,-0.0008,0.0315,-0.003,-10.6
1.792,0.0045,-0.0256,0.009,-0.033,-10.6
1.793,0.0052,-0.0203,-0.0098,-0.0503,-10.6
1.794,0.003,-0.0218,-0.0173,-0.045,-10.7
1.795,0.0022,-0.0308,-0.0181,-0.039,-10.7
1.796,0.003,-0.0315,-0.0158,-0.021,-10.7
1.797,0.0037,-0.0548,-0.003,-0.033,-10.8
1.798,0.0045,-0.0863,0.0097,-0.048,-10.8
1.799,-0.0008,-0.1185,0.0097,0.0157,-10.8
1.8,-0.0083,-0.0773,0.0097,0.093,-10.9
1.801,-0.0068,-0.003,0.0127,0.1177,-10.9
1.802,-0.0083,0.0457,0.0165,0.072,-11.0
1.803,-0.0083,0.0555,0.0142,-0.0158,-11.0
1.804,-0.0075,0.0045,0.009,-0.0428,-11.1
1.805,-0.0008,-0.0353,0.012,-0.057,-11.2
1.806,0.0037,-0.0645,0.0067,-0.0721,-11.2
1.807,0.0037,-0.0945,-0.0105,-0.0428,-11.3
1.808,0.0037,-0.1193,-0.021,0.0292,-11.3
1.809,-0.0046,-0.0998,-0.0173,0.129,-11.4
1.81,-0.0143,-0.0165,-0.0083,0.1125,-11.5
1.811,-0.0315,0.0232,0.0052,0.033,-11.5
1.812,-0.0511,0.0367,0.018,-0.0046,-11.6
1.813,-0.0436,0.06,0.015,-0.042,-11.7
1.814,-0.0181,0.1027,0.0157,-0.0165,-11.7
1.815,-0.0075,0.1702,0.0292,0.0352,-11.7
1.816,-0.0075,0.1717,0.0247,0.0592,-11.8
1.817,-0.0158,0.0975,0.012,0.0277,-11.9
1.818,-0.0008,0.0232,0.006,-0.0188,-11.9
1.819,0.033,0.0007,0.0022,0.003,-12.0
1.82,0.0667,-0.0165,0.0135,0.0232,-12.1
1.821,0.0802,-0.0473,0.021,0.0082,-12.2
1.822,0.057,-0.0743,0.0292,-0.0256,-12.2
1.823,0.0405,-0.075,0.0382,-0.0233,-12.3
1.824,0.0142,-0.0593,0.0052,-0.0293,-12.4
1.825,-0.0015,-0.0495,-0.0225,-0.0593,-12.5
1.826,-0.0053,0.0015,-0.0346,-0.0683,-12.6
1.827,-0.0203,0.0412,-0.0465,-0.0743,-12.7
1.828,-0.0105,0.024,-0.0383,-0.0608,-12.8
1.829,0.0045,-0.0091,-0.0315,-0.0706,-12.9
1.83,0.012,-0.0256,-0.0203,-0.0645,-13.0
1.831,0.003,-0.042,-0.0158,-0.003,-13.1
1.832,-0.0023,-0.0945,-0.0143,0.033,-13.1
1.833,0.003,-0.096,-0.0053,0.042,-13.2
1.834,0.0105,0.0255,-0.0008,0.078,-13.3
1.835,0.042,0.1335,0.003,0.1027,-13.4
1.836,0.0472,0.1027,-0.0023,0.0735,-13.5
1.837,0.0105,0.0555,0.006,0.03,-13.6
1.838,-0.0143,0.0547,0.0277,0.003,-13.7
1.839,-0.042,0.0232,0.051,-0.0188,-13.8
1.84,-0.0593,-0.0105,0.0442,-0.021,-13.9
1.841,-0.0488,-0.0256,0.0165,-0.012,-14.0
1.842,-0.039,-0.0368,0.015,-0.0053,-14.1
1.843,-0.0233,-0.0383,0.0082,-0.0075,-14.2
1.844,-0.0128,-0.033,-0.0008,-0.0143,-14.3
1.845,-0.0105,-0.0308,-0.0083,-0.012,-14.4
1.846,0.0007,-0.0293,-0.0173,-0.0091,-14.5
1.847,0.0015,-0.0256,-0.0113,-0.0068,-14.7
1.848,-0.0015,-0.021,-0.0015,-0.0091,-14.8
1.849,0.0075,-0.0195,0.003,-0.0068,-14.9
1.85,0.0307,-0.0098,-0.0128,0.0067,-15.0
1.851,0.042,0.018,-0.0233,0.018,-15.1
1.852,0.021,0.0382,-0.0143,0.0127,-15.3
1.853,-0.0015,0.0397,0.0052,0.0015,-15.3
1.854,-0.0105,0.0255,0.0165,-0.0015,-15.5
1.855,-0.0165,0.0127,0.0165,-0.006,-15.6
1.856,-0.0098,0.0232,0.0142,-0.003,-15.7
1.857,-0.0128,0.0202,0.0082,0.0,-15.8
1.858,-0.0068,0.0135,0.0067,-0.0083,-15.9
1.859,0.009,0.0075,-0.0053,-0.0278,-16.0
1.86,0.0112,-0.0135,-0.0038,-0.0353,-16.2
1.861,0.0157,-0.015,-0.0015,-0.0225,-16.2
1.862,0.0067,-0.0075,-0.0143,-0.0068,-16.4
1.863,0.0165,-0.0263,-0.003,-0.0008,-16.5
1.864,0.0225,-0.0623,0.003,-0.003,-16.6
1.865,-0.0105,-0.0473,-0.0158,-0.0015,-16.7
1.866,-0.0233,-0.0098,-0.0398,-0.0053,-16.8
1.867,-0.042,-0.0098,-0.0465,-0.0165,-16.9
1.868,-0.048,-0.0008,-0.048,-0.0181,-17.1
1.869,-0.0165,0.0105,-0.0368,-0.0091,-17.1
1.87,0.018,0.018,-0.0165,-0.0023,-17.3
1.871,0.0405,0.0225,-0.003,-0.003,-17.4
1.872,0.0412,0.0157,0.0105,-0.0008,-17.5
1.873,0.0315,0.0082,0.0285,-0.012,-17.6
1.874,-0.0015,-0.0053,0.06,-0.0181,-17.7
1.875,-0.0315,0.0022,0.0555,-0.0053,-17.8
1.876,-0.0503,0.0052,0.0105,-0.0046,-17.9
1.877,-0.0383,0.0007,-0.0323,0.0015,-18.0
1.878,-0.0008,-0.015,-0.0405,0.0097,-18.1
1.879,0.0202,-0.042,-0.0165,0.0202,-18.3
1.88,0.0315,-0.0346,0.0045,0.036,-18.4
1.881,0.0277,-0.0233,0.0247,0.0352,-18.4
1.882,0.0285,-0.024,0.0405,0.039,-18.3
1.883,0.018,-0.012,0.0517,0.048,-18.3
1.884,-0.0143,-0.012,0.0495,0.039,-18.2
1.885,-0.0428,-0.0113,0.0367,0.021,-18.2
1.886,-0.0585,-0.006,0.027,0.012,-18.1
1.887,-0.0405,-0.003,0.0157,0.0105,-18.1
1.888,-0.0203,0.006,0.0112,0.0015,-18.0
1.889,-0.006,0.0052,0.0082,-0.003,-18.0
1.89,0.0052,0.0015,0.0045,-0.003,-17.9
1.891,0.0105,-0.0053,0.003,-0.0091,-17.9
1.892,0.0225,-0.0083,0.0015,-0.0143,-17.8
1.893,0.0277,-0.0008,0.0157,-0.0098,-17.8
1.894,0.027,0.0082,0.0442,-0.0046,-17.7
1.895,0.0247,0.0195,0.039,0.0007,-17.7
1.896,0.0105,0.0277,0.0007,0.003,-17.6
1.897,0.0007,0.024,-0.033,-0.0008,-17.6
1.898,0.0007,0.0052,-0.0585,-0.0091,-17.6
1.899,-0.003,-0.0098,-0.0465,-0.0165,-17.5
1.9,-0.003,-0.0068,-0.0091,-0.0158,-17.5
1.901,-0.0015,0.0075,0.0067,-0.0038,-17.5
1.902,0.0022,0.0157,-0.0068,0.0082,-17.5
1.903,0.0082,0.018,-0.0308,0.0112,-17.6
1.904,0.009,0.0165,-0.045,0.0067,-17.6
1.905,0.0225,0.0097,-0.0503,0.0082,-17.7
1.906,0.0435,0.0127,-0.0383,0.009,-17.7
1.907,0.0427,0.0142,-0.006,0.0052,-17.8
1.908,0.024,0.0127,0.0442,0.0015,-17.9
1.909,0.003,0.0142,0.0645,-0.0046,-17.9
1.91,-0.0068,0.009,0.0382,-0.0083,-18.0
1.911,-0.0015,0.0075,0.0142,-0.003,-18.0
1.912,-0.0075,0.0105,-0.0105,0.0,-18.1
1.913,-0.0091,0.0097,-0.0256,0.0015,-18.1
1.914,-0.012,0.0097,-0.027,0.0045,-18.2
1.915,-0.021,0.012,-0.0256,0.0,-18.3
1.916,-0.024,0.0067,-0.0203,-0.0015,-18.3
1.917,-0.03,0.0052,-0.0128,-0.0046,-18.4
1.918,-0.0173,0.0075,0.012,-0.0105,-18.5
1.919,0.0105,0.0067,0.033,-0.0105,-18.5
1.92,0.0315,0.0022,0.0412,-0.027,-18.6
1.921,0.0315,-0.0015,0.048,-0.033,-18.7
1.922,0.0127,-0.003,0.0487,-0.021,-18.8
1.923,-0.0023,-0.003,0.0472,-0.0218,-18.9
1.924,-0.006,-0.0015,0.0517,-0.0128,-19.1
1.925,0.003,0.0022,0.0517,-0.0038,-19.2
1.926,0.0142,0.006,0.0195,0.0127,-19.3
1.927,0.039,0.0105,-0.039,0.0367,-19.4
1.928,0.054,0.0075,-0.0788,0.0405,-19.6
1.929,0.0277,0.0067,-0.099,0.0397,-19.7
1.93,-0.0008,0.0082,-0.1035,0.03,-19.8
1.931,-0.0353,-0.0008,-0.0863,0.0187,-20.0
1.932,-0.0458,-0.0053,-0.0623,0.0052,-20.1
1.933,-0.0383,-0.0068,-0.0278,-0.0128,-20.3
1.934,-0.0346,-0.0083,0.0015,-0.0091,-20.4
1.935,-0.0263,-0.003,0.0165,-0.0053,-20.5
1.936,-0.0225,-0.0008,0.0202,-0.015,-20.6
1.937,-0.0046,0.0007,0.0255,-0.0105,-20.7
1.938,0.0052,0.0007,0.027,-0.003,-20.9
1.939,0.0015,0.0007,0.0232,-0.0008,-21.0
1.94,0.0097,-0.0015,0.0255,-0.0008,-21.2
1.941,0.0232,-0.0053,0.0217,-0.0023,-21.2
1.942,0.0195,-0.0068,0.0217,-0.003,-21.2
1.943,-0.0023,-0.0075,0.0165,-0.0083,-21.3
1.944,-0.0188,-0.0075,0.0142,-0.006,-21.3
1.945,-0.0285,-0.0083,0.0165,-0.0083,-21.4
1.946,-0.0368,-0.0075,0.0135,-0.0083,-21.4
1.947,-0.033,-0.0053,0.012,-0.003,-21.5
1.948,-0.0256,-0.0068,0.0067,-0.0083,-21.5
1.949,-0.0181,-0.0091,0.0052,-0.012,-21.6
1.95,-0.012,-0.0098,0.006,-0.0105,-21.6
1.951,-0.012,-0.0105,0.0075,-0.0075,-21.7
1.952,-0.0068,-0.0128,0.0157,-0.0053,-21.7
1.953,-0.003,-0.0143,0.036,-0.0015,-21.8
1.954,0.0,-0.0113,0.0427,0.009,-21.8
1.955,0.003,-0.0091,0.0217,0.024,-21.9
1.956,0.0082,-0.0105,0.0105,0.0232,-21.9
1.957,0.0127,-0.0091,-0.0046,0.0082,-22.0
1.958,0.009,-0.0091,-0.0256,0.003,-22.0
1.959,0.0015,-0.0091,-0.0346,-0.0015,-22.1
1.96,-0.0008,-0.0091,-0.0346,0.0007,-22.1
1.961,0.003,-0.0098,-0.0248,0.0007,-22.1
1.962,0.0067,-0.012,-0.0158,-0.003,-22.0
1.963,0.009,-0.012,-0.0023,-0.0046,-22.0
1.964,0.012,-0.012,0.0045,-0.003,-21.9
1.965,0.0157,-0.012,0.0052,-0.0015,-21.8
1.966,0.018,-0.0113,0.012,-0.0075,-21.8
1.967,0.0142,-0.0091,0.0157,-0.012,-21.7
1.968,0.0127,-0.0083,0.0195,-0.0038,-21.7
1.969,0.0142,-0.0068,0.0217,0.0097,-21.6
1.97,0.0067,-0.006,0.0465,0.0105,-21.6
1.971,-0.0068,-0.0068,0.0735,0.0082,-21.5
1.972,-0.0143,-0.0068,0.0712,0.0067,-21.4
1.973,-0.0195,-0.0091,0.0465,0.0105,-21.4
1.974,-0.012,-0.0098,-0.0098,0.0157,-21.3
1.975,0.006,-0.0068,-0.0511,0.0037,-21.2
1.976,0.0172,-0.0068,-0.063,-0.0046,-21.2
1.977,0.0127,-0.0083,-0.0706,-0.0068,-21.2
1.978,0.0037,-0.0083,-0.057,-0.0068,-21.1
1.979,-0.0023,-0.0075,-0.042,-0.003,-21.0
1.98,-0.0046,-0.0068,-0.0203,-0.0083,-21.0
1.981,0.0015,-0.0068,0.0037,-0.0053,-20.9
1.982,0.0127,-0.0023,0.0165,-0.0046,-20.9
1.983,0.0165,0.0015,0.03,-0.0091,-20.8
1.984,0.0112,0.0022,0.0262,-0.0046,-20.8
1.985,0.0075,0.003,0.0165,0.0015,-20.7
1.986,0.0045,0.0,0.0142,0.0007,-20.7
1.987,-0.0008,0.0007,0.0082,-0.003,-20.7
1.988,-0.0098,0.0007,0.006,-0.0053,-20.6
1.989,-0.0091,0.0007,0.0105,-0.0046,-20.6
1.99,-0.0015,0.0045,0.012,-0.0015,-20.5
1.991,0.0,0.0045,0.0052,-0.0038,-20.5
1.992,-0.006,0.0052,-0.0053,-0.0068,-20.5
1.993,-0.0143,0.003,-0.012,-0.0068,-20.4
1.994,-0.0083,0.0015,-0.0128,-0.0053,-20.4
1.995,-0.003,0.0045,-0.0091,-0.0008,-20.3
1.996,0.0015,0.003,0.0,0.0015,-20.3
1.997,0.003,0.0052,0.0022,0.003,-20.3
1.998,0.0,0.006,0.003,0.006,-20.2
1.999,0.0007,0.0082,0.0045,0.0015,-20.2
2.0,0.0007,0.009,0.003,-0.003,-20.1
2.001,0.0045,0.0082,0.0067,-0.0015,-20.1
2.002,0.0022,0.0082,0.0097,-0.0023,-20.0
2.003,-0.0008,0.0067,0.0202,-0.0053,-20.0
2.004,-0.0008,0.0045,0.0435,-0.0083,-19.9
2.005,-0.0046,0.003,0.057,-0.0068,-19.9
2.006,-0.0008,0.003,0.0337,-0.0015,-19.8
2.007,0.0007,0.0037,-0.003,0.003,-19.8
2.008,0.0015,0.0052,-0.0203,0.009,-19.8
2.009,0.0067,0.006,-0.021,0.015,-19.7
2.01,0.0142,0.0052,-0.0218,0.0172,-19.7
2.011,0.0127,0.006,-0.024,0.009,-19.7
2.012,0.0015,0.0045,-0.0195,0.0037,-19.6
2.013,-0.0083,0.003,-0.0105,-0.0008,-19.6
2.014,-0.0158,0.0015,0.0,-0.0053,-19.5
2.015,-0.0143,0.0015,0.0015,-0.0046,-19.5
2.016,-0.0195,0.0037,-0.0068,-0.0046,-19.4
2.017,-0.03,0.0045,-0.012,-0.003,-19.4
2.018,-0.0256,0.0045,-0.0158,-0.0008,-19.4
2.019,-0.0181,0.0045,-0.0173,0.006,-19.3
2.02,-0.0105,0.0022,-0.0188,0.015,-19.3
2.021,0.006,0.003,-0.0225,0.0082,-19.3
2.022,0.0195,0.003,-0.0233,-0.0046,-19.2
2.023,0.0277,0.003,-0.012,0.0007,-19.2
2.024,0.0285,0.0015,-0.0015,0.0007,-19.2
2.025,0.0232,0.0007,0.0015,0.0037,-19.2
2.026,0.018,0.0022,0.0067,0.0075,-19.1
2.027,0.0142,-0.0008,0.009,0.0105,-19.1
2.028,0.0142,0.0007,0.009,0.0165,-19.1
2.029,0.0052,0.0015,0.0082,0.0052,-19.1
2.03,0.0015,-0.0008,0.0067,0.0052,-19.0
2.031,0.0082,0.0015,0.009,0.006,-19.0
2.032,0.003,-0.0015,0.012,-0.003,-19.0
2.033,-0.0046,-0.0023,0.0127,-0.0015,-19.0
2.034,-0.0023,-0.0023,0.0082,-0.0023,-19.0
2.035,-0.0008,-0.0023,0.0045,0.0007,-18.9
2.036,0.0015,-0.0015,0.0045,0.0007,-18.9
2.037,-0.0008,-0.0038,0.0037,0.0007,-18.9
2.038,-0.0046,-0.0008,0.003,0.0015,-18.9
2.039,-0.0068,0.0007,0.0007,-0.0015,-18.9
2.04,-0.0091,-0.0008,-0.0008,-0.0015,-18.9
2.041,-0.0098,-0.003,-0.0015,-0.0015,-18.9
2.042,-0.0091,-0.0023,-0.0046,0.0015,-18.9
2.043,-0.0046,-0.003,-0.0053,-0.0008,-18.8
2.044,-0.0015,-0.0023,-0.0053,-0.003,-18.8
2.045,-0.0015,0.0,-0.003,-0.0053,-18.8
2.046,-0.0046,0.0,-0.003,-0.0083,-18.8
2.047,-0.0068,0.0,-0.003,-0.0068,-18.8
2.048,-0.0015,-0.0008,-0.0015,-0.0083,-18.8
2.049,0.0037,-0.0008,0.0007,-0.0083,-18.8
2.05,0.003,-0.0015,0.0015,-0.0053,-18.8
2.051,0.0015,-0.003,0.0,-0.0008,-18.8
2.052,0.0052,-0.0015,0.0015,0.0007,-18.8
2.053,0.0112,-0.0015,0.0037,-0.0015,-18.7
2.054,0.0105,-0.0015,0.003,0.0015,-18.7
2.055,0.009,-0.0015,0.003,0.0045,-18.7
2.056,0.009,-0.0038,0.0022,0.0007,-18.7
2.057,0.0022,-0.006,0.0052,-0.0038,-18.7
2.058,-0.0091,-0.006,0.0052,-0.0046,-18.7
2.059,-0.012,-0.006,0.0037,-0.0015,-18.7
2.06,-0.0083,-0.0068,0.0067,0.0015,-18.7
2.061,0.0045,-0.0068,0.0067,0.0015,-18.7
2.062,0.027,-0.0053,0.0037,0.0015,-18.7
2.063,0.0232,-0.0053,0.0037,0.0007,-18.7
2.064,0.0015,-0.0053,0.0052,-0.0023,-18.6
2.065,-0.012,-0.0053,0.0052,-0.0015,-18.6
2.066,-0.0256,-0.0068,0.006,-0.0046,-18.6
2.067,-0.0233,-0.0053,0.003,-0.0015,-18.6
2.068,-0.0143,-0.0046,0.003,0.0007,-18.6
2.069,-0.0105,-0.0046,0.0052,-0.0015,-18.6
2.07,-0.0053,-0.003,0.0112,0.0007,-18.6
2.071,-0.0068,-0.0046,0.0352,-0.0015,-18.6
2.072,-0.0023,-0.0046,0.0472,-0.0015,-18.6
2.073,-0.0068,-0.003,0.027,-0.003,-18.6
2.074,-0.012,-0.0015,0.0045,-0.003,-18.6
2.075,-0.0083,-0.0015,-0.0143,-0.003,-18.6
2.076,-0.0068,-0.0015,-0.0353,-0.006,-18.6
2.077,-0.0075,-0.0023,-0.0428,-0.0083,-18.5
2.078,-0.0083,-0.003,-0.0353,-0.0038,-18.5
2.079,0.003,-0.0023,0.0045,0.0037,-18.5
2.08,0.0217,0.0007,0.0457,0.0067,-18.5
2.081,0.0262,-0.0015,0.0352,0.0127,-18.5
2.082,0.0255,-0.0046,0.0075,0.024,-18.5
2.083,0.0172,-0.0075,-0.0143,0.0195,-18.5
2.084,0.0052,-0.0083,-0.0353,0.0015,-18.5
2.085,0.0015,-0.0068,-0.0308,-0.003,-18.4
2.086,0.0045,-0.0046,-0.021,-0.0053,-18.4
2.087,0.003,-0.0023,-0.0083,-0.0046,-18.4
2.088,-0.0015,-0.003,0.0052,0.0,-18.4
2.089,-0.0015,-0.0023,0.0082,-0.0008,-18.3
2.09,-0.0038,-0.0023,0.0157,0.0015,-18.3
2.091,-0.0038,-0.0008,0.0105,0.0007,-18.3
2.092,-0.003,0.0007,0.0067,-0.0015,-18.3
2.093,-0.003,-0.0015,0.009,-0.0015,-18.2
2.094,-0.0015,-0.0015,0.009,0.0,-18.2
2.095,-0.0038,-0.0023,0.0105,0.0007,-18.2
2.096,-0.0046,-0.0023,0.009,0.0007,-18.2
2.097,-0.0046,-0.0008,0.006,0.0015,-18.2
2.098,-0.0015,-0.0008,0.0015,0.0022,-18.1
2.099,0.0007,-0.0008,-0.0008,0.0045,-18.1
2.1,0.0,-0.0008,-0.0015,0.0022,-18.1
2.101,-0.0038,-0.0008,-0.0023,0.0,-18.0
2.102,-0.0068,-0.0008,-0.0015,-0.0008,-18.0
2.103,-0.0023,0.0,-0.0046,-0.0023,-18.0
2.104,-0.0008,0.0007,-0.0083,-0.0008,-17.9
2.105,0.0015,0.0015,-0.0105,0.0007,-17.9
2.106,0.0007,0.0015,-0.0098,0.0,-17.8
2.107,-0.0015,0.0007,-0.0083,-0.0008,-17.8
2.108,-0.0023,0.0,-0.0046,-0.0038,-17.7
2.109,-0.0023,-0.0008,0.003,-0.0053,-17.7
2.11,0.003,-0.003,0.0037,-0.003,-17.6
2.111,0.0045,-0.0023,-0.0015,-0.003,-17.6
2.112,0.0082,-0.0008,-0.0068,-0.0015,-17.6
2.113,0.0067,0.0,-0.0091,-0.0023,-17.6
2.114,0.0045,0.0007,-0.012,-0.0008,-17.5
2.115,0.0015,-0.0008,-0.012,0.0015,-17.5
2.116,-0.0038,0.0,-0.0068,0.0007,-17.4
2.117,-0.0068,0.0015,-0.0083,0.0,-17.4
2.118,-0.0075,0.0015,-0.0091,0.0007,-17.3
2.119,-0.0128,0.0,-0.0053,0.0007,-17.3
2.12,-0.0165,-0.0008,-0.0023,-0.0015,-17.2
2.121,-0.0091,-0.0008,-0.0008,0.0007,-17.2
2.122,0.0007,-0.0023,0.0015,0.0052,-17.2
2.123,0.003,-0.0008,0.0052,0.0052,-17.1
2.124,0.006,-0.0008,0.0052,0.003,-17.1
2.125,0.009,-0.0008,0.0082,0.0015,-17.1
2.126,0.0135,0.003,0.0127,0.003,-17.1
2.127,0.0142,0.0,0.009,0.0067,-17.0
2.128,0.012,-0.0015,0.0097,0.0082,-17.0
2.129,0.0075,-0.003,0.0105,0.0015,-16.9
2.13,0.0,-0.003,0.012,-0.0098,-16.9
2.131,-0.003,0.0,0.0165,-0.0128,-16.9
2.132,-0.0046,0.0007,0.0142,-0.0053,-16.8
2.133,-0.0015,-0.0008,0.0105,-0.0053,-16.8
2.134,-0.0046,-0.003,0.0075,-0.0068,-16.7
2.135,-0.0053,-0.003,0.0067,-0.0015,-16.7
2.136,-0.0023,-0.0046,0.0045,-0.0015,-16.7
2.137,-0.0046,-0.0046,0.0037,0.0015,-16.7
2.138,-0.0008,-0.0038,0.0045,0.0015,-16.6
2.139,0.0007,-0.0038,0.0045,0.0022,-16.6
2.14,-0.0008,-0.0038,0.003,0.003,-16.6
2.141,-0.0008,-0.0046,0.0015,0.0007,-16.5
2.142,0.0,-0.0046,0.003,0.0007,-16.5
2.143,0.0007,-0.003,0.006,-0.0008,-16.5
2.144,0.0007,-0.0015,0.0067,0.0007,-16.4
2.145,-0.0008,-0.0038,0.0067,0.0,-16.4
2.146,-0.0008,-0.003,0.0037,0.0007,-16.4
2.147,-0.0023,-0.0023,0.0075,0.0015,-16.3
2.148,0.0,-0.0023,0.0082,0.003,-16.3
2.149,0.0037,0.0007,0.0052,0.0045,-16.3
2.15,0.0037,0.0015,0.0045,0.0045,-16.2
2.151,0.0007,0.0037,0.0015,0.0015,-16.2
2.152,0.0007,0.003,0.0015,-0.0015,-16.2
2.153,-0.0008,-0.0008,0.0015,-0.0015,-16.2
2.154,-0.003,0.0,0.0015,-0.003,-16.1
2.155,-0.0015,-0.0008,0.0037,-0.0038,-16.1
2.156,0.0015,-0.0015,0.003,-0.0015,-16.1
2.157,0.003,-0.0023,0.0052,0.0015,-16.0
2.158,0.0045,-0.003,0.006,0.0015,-16.0
2.159,0.0045,-0.003,0.0045,0.003,-16.0
2.16,0.0037,-0.0053,0.0052,0.003,-15.9
2.161,0.003,-0.0038,0.0037,0.0037,-15.9
2.162,0.0015,-0.0023,0.0045,0.0052,-15.8
2.163,-0.0015,-0.0015,0.0015,0.0052,-15.8
2.164,-0.0015,0.0007,0.0015,0.0075,-15.8
2.165,-0.003,0.0015,0.0007,0.0052,-15.8
2.166,-0.0046,0.0045,0.0,0.0045,-15.7
2.167,-0.0046,0.0045,0.0015,0.003,-15.7
2.168,-0.0053,0.0045,-0.0008,0.0015,-15.7
2.169,-0.003,0.0067,-0.0015,0.0022,-15.6
2.17,0.003,0.0045,-0.003,-0.0008,-15.6
2.171,0.009,0.0052,-0.0046,0.0007,-15.5
2.172,0.0097,0.006,-0.0046,0.0052,-15.5
2.173,0.0052,0.0015,-0.003,0.0045,-15.5
2.174,-0.003,0.0007,0.0,0.0,-15.4
2.175,-0.0135,0.0015,0.0015,-0.0038,-15.4
2.176,-0.0135,0.0,-0.0015,-0.0053,-15.3
2.177,-0.006,-0.0008,-0.003,-0.0023,-15.3
2.178,-0.0015,-0.0015,-0.0023,-0.003,-15.3
2.179,-0.0038,-0.003,-0.003,-0.0046,-15.3
2.18,-0.0015,0.0,-0.0023,-0.0038,-15.2
2.181,0.0037,0.0015,-0.0008,-0.0046,-15.2
2.182,0.0007,0.0015,-0.0023,-0.0046,-15.1
2.183,-0.0023,0.0007,-0.0038,-0.0053,-15.1
2.184,-0.0015,-0.0008,-0.003,-0.0015,-15.0
2.185,-0.0015,-0.0015,-0.003,-0.003,-15.0
2.186,-0.0008,-0.0015,-0.0008,-0.0038,-14.9
2.187,-0.0015,-0.0015,0.0052,0.0007,-14.9
2.188,-0.0008,0.0,0.0045,-0.0023,-14.9
2.189,-0.0015,0.0007,0.003,-0.0046,-14.8
2.19,-0.0038,0.0007,0.003,-0.0091,-14.8
2.191,-0.003,0.0015,-0.0008,-0.0128,-14.8
2.192,0.0,0.0007,-0.003,-0.0143,-14.7
2.193,0.0045,0.0015,-0.0075,-0.0158,-14.7
2.194,0.0105,0.003,-0.0091,-0.0083,-14.6
2.195,0.0127,0.0037,-0.0083,0.003,-14.6
2.196,0.0157,0.0007,-0.006,0.0157,-14.5
2.197,0.0157,-0.0015,0.0015,0.024,-14.5
2.198,0.0082,-0.003,0.0082,0.024,-14.4
2.199,-0.0046,-0.0053,0.0112,0.0112,-14.4
2.2,-0.0203,-0.0068,0.0165,-0.0015,-14.4
2.201,-0.0173,-0.0068,0.018,-0.0038,-14.3
2.202,-0.006,-0.0083,0.0187,-0.0046,-14.3
2.203,-0.0015,-0.0068,0.0195,-0.0053,-14.2
2.204,0.0052,-0.003,0.018,-0.0091,-14.2
2.205,0.0082,-0.0008,0.012,-0.006,-14.1
2.206,0.0037,-0.0015,0.003,0.0022,-14.1
2.207,0.0015,-0.003,-0.003,-0.0015,-14.0
2.208,-0.0015,-0.003,-0.0083,-0.0015,-14.0
2.209,-0.003,-0.0015,-0.0143,-0.003,-14.0
2.21,-0.0015,-0.0015,-0.0135,-0.0046,-13.9
2.211,-0.0015,-0.0015,-0.0113,0.0,-13.9
2.212,-0.0008,-0.0015,-0.0105,-0.0015,-13.9
2.213,0.0007,-0.0023,-0.0105,0.0015,-13.8
2.214,0.0015,-0.003,-0.0113,-0.0008,-13.8
2.215,0.0007,-0.0015,-0.012,-0.0008,-13.7
2.216,-0.0008,-0.003,-0.0128,0.0022,-13.7
2.217,0.0,-0.003,-0.0135,0.0007,-13.6
2.218,-0.0008,-0.0015,-0.0143,0.0022,-13.6
2.219,-0.0008,-0.0008,-0.0128,0.0015,-13.5
2.22,0.0,-0.0015,-0.012,0.0037,-13.5
2.221,0.0,-0.0015,-0.0098,0.003,-13.5
2.222,0.0007,-0.003,-0.006,0.0015,-13.5
2.223,0.003,-0.003,-0.0038,0.0037,-13.4
2.224,0.0045,-0.0023,-0.003,-0.0015,-13.4
2.225,0.0015,-0.0015,-0.0038,-0.0053,-13.3
2.226,-0.0008,-0.0015,-0.003,-0.0053,-13.3
2.227,-0.003,-0.0023,0.0007,-0.0046,-13.3
2.228,-0.003,-0.0015,0.003,-0.0015,-13.2
2.229,-0.0023,-0.0008,0.003,-0.0023,-13.2
2.23,0.0015,0.0007,0.0015,-0.003,-13.2
2.231,0.003,-0.0015,0.003,-0.0023,-13.1
2.232,0.0015,-0.003,0.0007,-0.0008,-13.1
2.233,0.003,-0.0008,-0.0008,0.0007,-13.1
2.234,0.0007,-0.0015,0.0015,0.0,-13.1
2.235,-0.0008,-0.0015,-0.0008,-0.0015,-13.0
2.236,0.0,-0.0015,0.0,0.0007,-13.0
2.237,-0.0008,-0.003,0.0007,0.0067,-13.0
2.238,0.0015,-0.0015,0.0007,0.009,-12.9
2.239,0.0,0.0007,0.0015,0.009,-12.9
2.24,-0.0008,0.0015,0.0007,0.0097,-12.9
2.241,0.0007,-0.0008,0.003,0.0075,-12.8
2.242,0.0,-0.0008,0.003,0.006,-12.8
2.243,0.0,-0.0008,0.0007,0.0045,-12.8
2.244,-0.0015,-0.0015,0.0015,0.0015,-12.8
2.245,-0.0008,-0.0015,0.0022,-0.003,-12.7
2.246,0.0007,-0.0015,0.0015,-0.0053,-12.7
2.247,0.0007,-0.0015,0.003,-0.003,-12.7
2.248,0.0,-0.003,0.0045,-0.003,-12.7
2.249,-0.0008,-0.0038,0.003,-0.0046,-12.6
2.25,0.0,-0.0053,0.003,-0.0046,-12.6
2.251,-0.0015,-0.0046,0.003,-0.0038,-12.6
2.252,-0.0008,-0.003,0.0052,-0.0038,-12.6
2.253,0.0015,-0.0038,0.0045,-0.0023,-12.6
2.254,0.0015,-0.0015,0.0015,-0.0023,-12.5
2.255,0.0007,-0.0015,0.0007,-0.0015,-12.5
2.256,0.0007,-0.0015,0.0022,0.0007,-12.5
2.257,0.0,-0.003,0.003,0.0,-12.5
2.258,0.0,-0.003,0.0015,0.0015,-12.4
2.259,0.0007,0.0007,0.0,0.0045,-12.4
2.26,0.0,-0.0015,0.0,0.003,-12.4
2.261,0.0015,-0.0023,-0.0008,0.0007,-12.4
2.262,0.0022,-0.003,0.0,0.0022,-12.3
2.263,0.0007,-0.0008,0.0007,0.0037,-12.3
2.264,0.0015,0.0,0.0007,0.0052,-12.3
2.265,0.0007,-0.0015,0.0015,0.003,-12.3
2.266,0.0007,-0.0015,0.0015,0.0045,-12.3
2.267,0.0015,-0.003,0.0015,0.0067,-12.3
2.268,-0.0008,-0.0023,0.0022,0.0052,-12.2
2.269,-0.0046,-0.003,0.003,0.003,-12.2
2.27,-0.0053,-0.0008,0.0037,0.0015,-12.2
2.271,-0.0023,0.0,0.0015,0.0007,-12.2
2.272,-0.0023,0.0007,0.0022,0.0007,-12.2
2.273,-0.003,0.0015,0.003,-0.0015,-12.2
2.274,-0.0053,0.0007,0.0045,-0.003,-12.2
2.275,-0.0091,0.0007,0.0082,-0.0023,-12.2
2.276,-0.0068,0.0015,0.0105,-0.0008,-12.1
2.277,-0.003,0.0045,0.0105,-0.0023,-12.1
2.278,-0.003,0.006,0.0082,-0.0046,-12.1
2.279,0.0007,0.0037,0.0052,0.0007,-12.1
2.28,0.0067,0.0007,0.003,0.006,-12.1
2.281,0.0142,0.0007,0.003,0.0045,-12.1
2.282,0.0135,0.0015,0.003,0.003,-12.1
2.283,0.0045,0.0022,0.006,0.0015,-12.0
2.284,-0.0046,0.0015,0.0067,0.003,-12.0
2.285,-0.0105,-0.003,0.006,0.0007,-12.0
2.286,-0.0135,-0.0091,0.0075,-0.003,-12.0
2.287,-0.012,-0.0091,0.0067,-0.0015,-12.0
2.288,-0.0098,-0.006,0.0052,0.0,-12.0
2.289,-0.0053,-0.003,0.0067,-0.0008,-12.0
2.29,-0.0008,-0.003,0.0067,-0.0015,-11.9
2.291,0.0052,-0.0038,0.0075,-0.0038,-11.9
2.292,0.0075,-0.003,0.009,-0.0053,-11.9
2.293,0.003,0.0045,0.009,-0.0075,-11.9
2.294,0.0037,0.012,0.0067,-0.0083,-11.9
2.295,0.0022,0.012,0.0045,-0.0075,-11.9
2.296,0.0022,0.0082,0.0037,-0.0083,-11.9
2.297,0.003,0.0075,0.0015,-0.0068,-11.9
2.298,0.003,0.0045,0.0022,-0.0023,-11.8
2.299,0.0045,0.0007,0.0045,0.0007,-11.8
2.3,0.0045,-0.003,0.0045,0.0007,-11.8
2.301,0.0045,-0.0105,0.0052,-0.0008,-11.8
2.302,0.0037,-0.015,0.006,-0.0008,-11.8
2.303,0.003,-0.021,0.0052,0.0007,-11.8
2.304,0.003,-0.0263,0.0075,0.0007,-11.7
2.305,0.0015,-0.0285,0.0082,0.0015,-11.7
2.306,0.0015,-0.027,0.0067,0.0082,-11.7
2.307,0.0015,-0.0165,0.0045,0.0127,-11.7
2.308,0.0045,-0.0083,0.003,0.0142,-11.7
2.309,0.0037,-0.0023,0.0007,0.0157,-11.7
2.31,0.0015,0.003,0.0007,0.0157,-11.7
2.311,0.0007,0.0082,0.0015,0.0127,-11.7
2.312,-0.0008,0.0135,-0.0008,0.0127,-11.6
2.313,-0.0008,0.0142,-0.0023,0.0112,-11.6
2.314,0.0007,0.0112,-0.0015,0.0075,-11.6
2.315,0.0015,0.0112,-0.0015,0.0037,-11.6
2.316,-0.0008,0.0142,-0.0008,0.0007,-11.6
2.317,-0.0008,0.0172,-0.0023,-0.0015,-11.5
2.318,0.0007,0.0172,-0.0015,-0.0046,-11.5
2.319,0.0,0.009,-0.0015,-0.0068,-11.5
2.32,-0.0015,0.0007,-0.0008,-0.0083,-11.5
2.321,-0.0015,0.0007,-0.0008,-0.0105,-11.5
2.322,-0.0046,-0.0008,-0.0015,-0.0128,-11.5
2.323,-0.0046,-0.0015,-0.0015,-0.0143,-11.4
2.324,-0.0023,-0.0046,-0.0046,-0.0158,-11.4
2.325,-0.0046,-0.0083,-0.0015,-0.015,-11.4
2.326,-0.0015,-0.0091,-0.0046,-0.015,-11.4
2.327,0.0015,-0.0091,-0.0053,-0.0225,-11.4
2.328,0.0007,-0.0053,-0.003,-0.0203,-11.4
2.329,-0.0015,-0.003,-0.0046,-0.0068,-11.4
2.33,-0.0046,-0.0038,-0.003,-0.003,-11.4
2.331,-0.0023,-0.003,-0.0008,-0.0038,-11.4
2.332,-0.0008,-0.0046,0.0007,0.0015,-11.4
2.333,0.0007,-0.0053,0.0,0.003,-11.3
2.334,0.003,-0.003,0.0007,0.0037,-11.3
2.335,0.0015,-0.003,0.0052,0.003,-11.3
2.336,0.003,-0.003,0.0052,0.0045,-11.3
2.337,0.003,-0.003,0.0052,0.0045,-11.3
2.338,0.0,-0.003,0.0045,0.0007,-11.3
2.339,0.0007,-0.0015,0.0052,0.0015,-11.3
2.34,0.003,-0.0068,0.0052,0.0015,-11.3
2.341,0.003,-0.0083,0.0037,0.0007,-11.3
2.342,0.0045,-0.0015,0.0015,-0.0053,-11.3
2.343,0.0045,0.0037,-0.0008,-0.0158,-11.3
2.344,0.003,0.003,0.0007,-0.0105,-11.3
2.345,0.0052,0.0045,0.0022,0.0037,-11.2
2.346,0.0037,0.0127,0.0015,0.0067,-11.2
2.347,0.0007,0.0247,0.0007,0.0165,-11.2
2.348,0.0007,0.0315,-0.0015,0.0195,-11.2
2.349,0.0007,0.027,-0.0008,0.012,-11.2
2.35,0.0007,0.009,-0.0008,0.018,-11.2
2.351,0.0,-0.0091,-0.0008,0.0232,-11.2
2.352,-0.0023,-0.021,0.0015,0.0232,-11.1
2.353,-0.0046,-0.0323,0.003,0.0127,-11.1
2.354,-0.0023,-0.03,0.0037,0.0105,-11.1
2.355,-0.0015,-0.0165,0.0015,0.0142,-11.1
2.356,-0.0023,-0.0083,0.0007,0.009,-11.1
2.357,0.0007,-0.0038,0.0,0.006,-11.1
2.358,-0.0008,-0.0068,0.0,-0.0046,-11.1
2.359,-0.0015,-0.0128,0.0,-0.0091,-11.0
2.36,-0.0015,-0.012,-0.0008,-0.0105,-11.0
2.361,0.0007,-0.0068,-0.0008,-0.012,-11.0
2.362,0.003,-0.003,-0.0008,-0.0105,-11.0
2.363,0.0007,0.0,0.0015,-0.012,-11.0
2.364,-0.0008,0.0015,0.0015,-0.0105,-11.0
2.365,-0.003,0.003,0.0045,-0.0091,-11.0
2.366,-0.0046,0.003,0.0052,-0.006,-11.0
2.367,-0.0068,0.0015,0.0015,-0.003,-10.9
2.368,-0.0053,0.0007,0.0015,-0.0023,-10.9
2.369,-0.0015,0.003,-0.0008,-0.0023,-10.9
2.37,-0.0008,0.0045,0.0007,-0.003,-10.9
2.371,0.0,0.0015,0.003,-0.0038,-10.9
2.372,0.0015,0.003,0.0007,-0.0046,-10.9
2.373,0.0052,0.003,0.0007,-0.0046,-10.9
2.374,0.0067,-0.0008,0.0,-0.0038,-10.8
2.375,0.0022,-0.0015,-0.003,-0.0015,-10.8
2.376,-0.0008,-0.003,-0.0038,0.0007,-10.8
2.377,0.0067,-0.003,-0.0046,0.0015,-10.8
2.378,0.0195,-0.0015,-0.0023,0.0052,-10.8
2.379,0.0217,-0.0015,0.0,0.009,-10.8
2.38,0.0142,0.0007,0.0007,0.0082,-10.8
2.381,0.0052,0.0015,0.0015,0.0045,-10.8
2.382,-0.0023,0.0015,0.0015,0.0015,-10.8
2.383,-0.0105,0.0007,0.0015,0.0007,-10.8
2.384,-0.0143,0.003,0.0015,-0.0015,-10.8
2.385,-0.0143,0.0015,0.003,-0.0015,-10.8
2.386,-0.0135,0.0,0.0052,0.0007,-10.8
2.387,-0.0091,0.0007,0.0052,0.0015,-10.8
2.388,-0.003,0.0015,0.0045,0.0015,-10.7
2.389,0.0037,0.0015,0.0045,0.0007,-10.7
2.39,0.0015,0.0015,0.0022,0.0007,-10.7
2.391,-0.0046,0.0007,0.0007,-0.0023,-10.7
2.392,-0.0053,-0.0008,0.0045,-0.003,-10.7
2.393,-0.0046,-0.003,0.003,-0.0023,-10.7
2.394,-0.0038,-0.0038,-0.0008,0.0015,-10.7
2.395,-0.0008,-0.0038,0.0007,0.0052,-10.7
2.396,0.0007,-0.003,-0.0015,0.0022,-10.7
2.397,0.0052,-0.0015,0.0,-0.0075,-10.7
2.398,0.0067,-0.0008,0.0007,-0.0105,-10.6
2.399,0.0045,-0.0008,-0.003,0.0007,-10.6
2.4,0.0045,0.0007,-0.0015,0.0052,-10.6
2.401,0.0022,0.0007,-0.0008,0.0045,-10.6
2.402,0.0007,-0.0008,-0.0015,0.0045,-10.6
2.403,0.0007,0.0007,-0.0008,-0.0008,-10.6
2.404,0.0007,0.0,0.0,0.0007,-10.6
2.405,0.0015,0.0,0.0015,0.0007,-10.6
2.406,-0.0008,0.0,0.0037,0.0015,-10.6
2.407,0.0,-0.0015,0.003,0.0045,-10.6
2.408,-0.0008,-0.0015,-0.0015,0.0015,-10.6
2.409,-0.0023,-0.0015,-0.003,0.0007,-10.6
2.41,-0.0008,-0.0015,-0.003,-0.0008,-10.6
2.411,-0.0015,-0.0008,-0.0023,-0.003,-10.6
2.412,-0.0008,-0.003,0.0,-0.0046,-10.6
2.413,-0.0015,-0.0038,-0.0008,-0.0053,-10.6
2.414,-0.0008,-0.003,0.0015,-0.0038,-10.6
2.415,0.0007,-0.0023,0.0037,-0.0008,-10.6
2.416,-0.0008,-0.0015,0.0037,-0.0008,-10.6
2.417,0.0,-0.0023,0.0052,0.0,-10.6
2.418,0.0022,-0.003,0.0052,-0.0008,-10.6
2.419,0.0015,-0.003,0.0045,-0.0008,-10.6
2.42,0.0007,-0.003,0.0045,0.0007,-10.7
2.421,-0.0008,-0.003,0.0052,0.0015,-10.7
2.422,-0.0015,-0.003,0.0037,0.0007,-10.7
2.423,-0.003,-0.003,0.0007,0.0,-10.7
2.424,-0.0023,-0.003,0.0022,0.0007,-10.7
2.425,0.0,-0.0008,0.0045,0.0007,-10.7
2.426,-0.0008,0.0007,0.0037,0.0022,-10.7
2.427,-0.0008,0.0015,0.0045,0.003,-10.7
2.428,-0.0015,0.0007,0.0067,0.0045,-10.7
2.429,0.0,0.0,0.0075,0.0037,-10.7
2.43,0.0022,0.0007,0.0052,0.0037,-10.8
2.431,0.0022,0.0,0.0045,0.0052,-10.8
2.432,0.003,0.0,0.0037,0.0045,-10.8
2.433,0.0007,-0.0015,0.0045,0.006,-10.8
2.434,0.0,-0.0015,0.0052,0.003,-10.8
2.435,0.0022,0.0015,0.003,-0.0008,-10.8
2.436,0.0015,0.0015,0.0015,-0.003,-10.8
2.437,0.0015,0.0015,-0.0008,-0.003,-10.8
2.438,0.0007,0.0007,-0.0015,-0.0046,-10.8
2.439,0.0,0.0007,-0.0008,-0.0046,-10.8
2.44,0.0,0.0022,-0.003,-0.0023,-10.9
2.441,0.0007,-0.0008,-0.003,-0.0038,-10.9
2.442,0.0,0.0,-0.0008,-0.0038,-10.9
2.443,0.0,0.0,0.0007,-0.0023,-10.9
2.444,-0.0008,-0.0023,0.0052,-0.0008,-10.9
2.445,-0.0008,-0.0008,0.006,0.0007,-11.0
2.446,-0.0015,-0.0008,0.0037,-0.0008,-11.0
2.447,-0.0015,-0.0008,0.0045,0.0007,-11.0
2.448,-0.0015,-0.0008,0.0015,-0.0015,-11.0
2.449,0.0007,-0.0008,0.003,-0.0015,-11.1
2.45,0.0082,-0.0015,0.0007,0.0015,-11.1
2.451,0.0112,-0.003,-0.0015,0.0,-11.1
2.452,0.0105,-0.003,0.0,0.0,-11.2
2.453,0.009,-0.003,0.0,0.0015,-11.2
2.454,0.003,-0.003,-0.0015,-0.0008,-11.2
2.455,-0.0053,-0.0015,-0.0015,0.0007,-11.2
2.456,-0.0105,-0.003,-0.0023,-0.0008,-11.3
2.457,-0.015,-0.0046,-0.0023,-0.0023,-11.3
2.458,-0.0135,-0.003,-0.0023,-0.0015,-11.3
2.459,-0.0091,-0.003,-0.003,-0.0015,-11.3
2.46,-0.003,-0.003,-0.0046,-0.0008,-11.4
2.461,0.0097,-0.0015,-0.0015,0.0,-11.4
2.462,0.012,-0.0008,0.0015,-0.0015,-11.4
2.463,0.0052,-0.003,0.0045,0.0,-11.4
2.464,0.0,-0.003,0.0067,0.0007,-11.5
2.465,-0.0046,-0.003,0.0045,0.0,-11.5
2.466,-0.0053,-0.0046,0.0007,-0.0008,-11.5
2.467,-0.0038,-0.0046,0.0015,0.0,-11.6
2.468,0.0037,-0.0046,-0.0008,0.0015,-11.6
2.469,0.0052,-0.0038,0.0,0.0007,-11.6
2.47,0.0037,-0.0046,0.0007,0.0007,-11.7
2.471,0.0022,-0.003,0.003,0.0007,-11.7
2.472,-0.0008,-0.0023,0.0067,-0.0008,-11.7
2.473,-0.0015,-0.0038,0.0052,0.0007,-11.7
2.474,-0.0015,-0.0038,0.0075,0.0,-11.8
2.475,-0.0023,-0.003,0.0082,0.0007,-11.8
2.476,-0.0023,-0.0008,0.006,0.0022,-11.8
2.477,-0.003,-0.0008,0.0075,0.0007,-11.9
2.478,-0.003,-0.0008,0.0067,0.003,-11.9
2.479,-0.0046,-0.0008,0.0015,0.0022,-11.9
2.48,-0.003,-0.0015,-0.0053,0.0022,-12.0
2.481,-0.0015,0.0007,-0.0105,0.0052,-12.0
2.482,0.0007,0.0082,-0.0135,0.0015,-12.1
2.483,0.0015,0.0127,-0.0128,0.0007,-12.1
2.484,0.0,0.0112,-0.0091,0.0007,-12.2
2.485,-0.0015,0.0097,-0.0083,-0.003,-12.2
2.486,-0.003,0.0052,-0.003,-0.0046,-12.2
2.487,-0.0008,-0.0015,0.009,-0.0038,-12.2
2.488,-0.0015,-0.0046,0.0217,-0.003,-12.3
2.489,-0.0038,-0.0075,0.018,-0.0023,-12.3
2.49,-0.0023,-0.0113,0.003,-0.0023,-12.4
2.491,-0.0015,-0.0158,-0.006,-0.0008,-12.4
2.492,-0.0023,-0.0181,-0.0113,0.0015,-12.5
2.493,-0.0038,-0.0181,-0.0105,0.0015,-12.5
2.494,-0.0046,-0.0143,-0.0068,0.0037,-12.6
2.495,-0.0098,-0.0098,-0.003,0.0067,-12.6
2.496,-0.0135,-0.0023,0.0015,0.003,-12.6
2.497,-0.0105,0.0007,0.003,0.0015,-12.6
2.498,-0.0068,0.0015,0.0075,-0.0008,-12.7
2.499,-0.006,0.0045,0.0097,-0.0046,-12.7
2.5,-0.0046,0.0067,0.0105,-0.003,-12.8
2.501,-0.0023,0.0105,0.0082,-0.0038,-12.8
2.502,0.0,0.0097,0.003,-0.0046,-12.9
2.503,0.0045,0.009,0.003,-0.003,-12.9
2.504,0.0052,0.009,0.003,-0.0008,-13.0
2.505,0.006,0.0067,0.0015,-0.0008,-13.0
2.506,0.0052,0.003,0.0052,-0.0023,-13.1
2.507,0.0052,-0.0015,0.0052,-0.0046,-13.1
2.508,0.0067,-0.0015,0.0052,-0.0046,-13.1
2.509,0.0045,-0.0023,0.0045,-0.0015,-13.2
2.51,0.0067,-0.0046,0.0007,-0.0015,-13.3
2.511,0.0067,-0.0038,0.0,-0.003,-13.3
2.512,0.0075,-0.0015,0.0015,-0.0015,-13.4
2.513,0.0075,0.0015,0.0022,0.0015,-13.4
2.514,0.0067,0.0007,0.0022,0.0,-13.5
2.515,0.0052,-0.0023,0.0007,0.0015,-13.5
2.516,0.003,-0.0015,0.0007,0.003,-13.5
2.517,0.003,-0.0023,0.003,0.0037,-13.6
2.518,0.003,-0.0015,0.003,0.0045,-13.6
2.519,0.0045,-0.003,0.0067,0.003,-13.7
2.52,0.0037,-0.0008,0.006,0.0022,-13.8
2.521,0.0022,0.0015,0.0022,0.0022,-13.8
2.522,0.0015,0.0015,0.0015,0.0052,-13.9
2.523,0.0015,0.0067,-0.0008,0.003,-13.9
2.524,0.0007,0.0082,-0.0008,0.0015,-14.0
2.525,0.0,0.0037,-0.003,0.003,-14.0
2.526,-0.0015,0.0045,-0.0046,0.0045,-14.1
2.527,0.0007,0.0052,-0.003,0.0045,-14.1
2.528,-0.0008,0.0045,-0.0038,0.0015,-14.2
2.529,-0.003,0.0015,-0.003,-0.0015,-14.3
2.53,-0.0015,-0.0023,-0.003,0.0,-14.3
2.531,-0.0015,-0.0008,-0.0046,0.0015,-14.4
2.532,0.0007,0.0045,-0.003,0.0007,-14.4
2.533,0.0015,0.0052,0.0,0.003,-14.5
2.534,-0.0008,0.009,0.0007,0.0015,-14.5
2.535,-0.0015,0.0097,0.0007,-0.0015,-14.6
2.536,-0.0023,0.0082,0.0015,0.0007,-14.7
2.537,-0.0015,0.003,0.0045,-0.0008,-14.7
2.538,-0.0008,-0.0068,0.0052,-0.0015,-14.8
2.539,0.0007,-0.0158,0.0067,-0.0008,-14.9
2.54,0.0007,-0.0248,0.006,0.0,-14.9
2.541,0.0015,-0.0233,0.003,0.0007,-15.0
2.542,0.0015,-0.0165,0.0015,0.003,-15.0
2.543,0.0037,-0.012,0.003,0.0045,-15.1
2.544,0.0067,-0.0068,0.0067,0.003,-15.2
2.545,0.0082,-0.0038,0.0052,-0.0015,-15.3
2.546,0.0105,-0.0008,0.0052,-0.003,-15.3
2.547,0.012,0.0015,0.0067,-0.003,-15.4
2.548,0.012,0.0,0.0045,-0.0053,-15.5
2.549,0.0105,-0.0053,0.003,-0.0053,-15.6
2.55,0.009,-0.006,0.0007,-0.0046,-15.7
2.551,0.0082,0.0007,0.0,-0.0015,-15.8
2.552,0.0052,0.0015,0.003,-0.003,-15.8
2.553,0.0045,-0.0015,0.0022,-0.0046,-15.9
2.554,0.0022,-0.0053,0.0022,-0.0046,-16.0
2.555,-0.0008,-0.0068,0.0037,-0.0068,-16.1
2.556,-0.0008,-0.0083,0.003,-0.003,-16.1
2.557,-0.003,-0.0091,0.0,-0.0008,-16.2
2.558,-0.0038,-0.0083,-0.0008,0.0045,-16.3
2.559,-0.0053,-0.0046,0.0015,0.0045,-16.3
2.56,-0.0068,-0.0023,0.0022,0.0,-16.5
2.561,-0.006,0.0015,0.003,0.0015,-16.5
2.562,-0.0068,0.0045,0.0037,0.0,-16.6
2.563,-0.0053,0.0015,0.0015,0.0007,-16.7
2.564,-0.0046,0.0037,0.0015,0.0037,-16.8
2.565,-0.0046,0.0045,0.003,0.0037,-16.9
2.566,-0.0038,0.0037,0.003,0.003,-17.1
2.567,-0.0053,0.0015,0.0015,0.0045,-17.1
2.568,-0.003,0.0007,0.0,0.0052,-17.2
2.569,-0.0008,0.0,-0.0015,0.0015,-17.3
2.57,-0.0053,0.0,-0.0015,0.0007,-17.5
2.571,-0.0053,0.003,-0.0015,0.003,-17.6
2.572,-0.0038,0.003,0.0,0.0045,-17.6
2.573,-0.0038,-0.0008,0.0007,0.0037,-17.7
2.574,-0.003,-0.0015,0.0015,-0.0008,-17.8
2.575,-0.0046,0.0015,0.0015,0.0,-18.0
2.576,-0.0053,0.003,-0.0008,0.003,-18.0
2.577,-0.0046,-0.0015,-0.0015,-0.0023,-18.1
2.578,-0.003,-0.0091,-0.0015,-0.0053,-18.3
2.579,-0.0015,-0.0128,-0.0015,-0.0053,-18.4
2.58,-0.0015,-0.0083,0.0,-0.003,-18.5
2.581,-0.0015,0.0007,0.0,-0.0008,-18.6
2.582,0.0,0.0015,0.0,-0.003,-18.7
2.583,-0.0008,-0.0046,-0.0008,-0.003,-18.9
2.584,0.0007,-0.0053,0.0007,-0.0008,-19.0
2.585,0.0007,-0.0046,0.0007,-0.0015,-19.2
2.586,0.0,0.0007,-0.0015,0.0007,-19.4
2.587,-0.0008,0.0067,-0.003,0.0015,-19.5
2.588,0.0007,0.0112,-0.0046,0.0022,-19.6
2.589,0.0007,0.0105,-0.0053,0.0022,-19.8
2.59,0.0007,0.012,-0.0068,0.003,-19.9
2.591,0.0022,0.0127,-0.0053,0.003,-20.1
2.592,0.0037,0.0082,-0.0046,0.0052,-20.2
2.593,0.0045,0.009,-0.0046,0.0052,-20.3
2.594,0.0045,0.0045,-0.003,-0.0008,-20.5
2.595,0.0007,-0.0091,-0.003,-0.0053,-20.7
2.596,0.0,-0.0188,-0.003,-0.0091,-20.8
2.597,-0.0008,-0.0181,-0.0015,-0.0091,-20.9
2.598,0.0007,-0.0105,0.0007,-0.0068,-21.1
2.599,0.0007,-0.0038,0.0015,-0.003,-21.2
2.6,0.0015,0.0015,0.0007,0.0007,-21.4
2.601,0.0007,0.003,0.0007,0.0022,-21.6
2.602,-0.0023,0.0045,-0.0015,0.0052,-21.8
2.603,-0.003,0.0082,-0.0015,0.009,-22.0
2.604,-0.0046,0.0052,-0.003,0.0052,-22.2
2.605,-0.0038,-0.0008,-0.003,0.0045,-22.4
2.606,-0.0046,-0.003,-0.003,0.003,-22.6
2.607,-0.0038,-0.006,-0.0046,0.0015,-22.8
2.608,-0.0015,-0.0068,-0.0046,0.0015,-23.0
2.609,-0.0038,-0.003,-0.0053,-0.0008,-23.2
2.61,-0.0015,0.0007,-0.006,0.0015,-23.4
2.611,-0.0008,0.0007,-0.0053,0.0007,-23.6
2.612,0.0,-0.003,-0.0038,-0.0015,-23.9
2.613,0.0007,-0.0075,-0.006,-0.0015,-24.0
2.614,0.0007,-0.0068,-0.0053,-0.0008,-24.3
2.615,0.0022,-0.0023,-0.0038,-0.0015,-24.4
2.616,0.0015,-0.0015,-0.0023,-0.0015,-24.7
2.617,0.0045,-0.003,0.0007,-0.0015,-24.8
2.618,0.0052,-0.003,0.0007,-0.0023,-25.1
2.619,0.0045,0.0,0.003,-0.0008,-25.2
2.62,0.0052,-0.0008,0.006,-0.0008,-25.5
2.621,0.0052,-0.0015,0.0045,0.0007,-25.7
2.622,0.0022,0.0007,0.003,0.0022,-26.0
2.623,0.003,0.0,0.0022,0.003,-26.3
2.624,0.0037,-0.0008,-0.0008,0.003,-26.6
2.625,0.003,0.0,-0.0008,0.003,-26.9
2.626,0.003,-0.0008,0.0007,0.0015,-27.1
2.627,0.003,0.0007,0.0015,0.0,-27.4
2.628,0.0022,0.0022,0.0022,-0.0015,-27.7
2.629,0.0015,0.0015,0.003,-0.0046,-27.9
2.63,0.0007,-0.0008,0.0015,-0.0053,-28.3
2.631,-0.0008,-0.0008,0.003,-0.0046,-28.5
2.632,0.0007,-0.0015,0.0015,-0.0015,-28.8
2.633,0.0,-0.0015,0.0,0.0,-29.1
2.634,0.0007,0.0,0.0007,0.0015,-29.3
2.635,-0.0008,0.0007,0.0022,0.003,-29.6
2.636,-0.0008,-0.0015,0.0015,0.0007,-29.9
2.637,0.0007,-0.003,0.0015,0.0037,-30.2
2.638,0.0015,0.0007,-0.0008,0.0045,-30.5
2.639,0.0007,-0.003,-0.0015,0.0015,-30.7
2.64,0.0007,-0.0053,-0.0008,0.0,-31.1
2.641,0.003,-0.0046,-0.0008,-0.0015,-31.3
2.642,0.0015,-0.0053,-0.0015,-0.0015,-31.6
2.643,0.0,-0.0053,-0.0008,0.0022,-32.0
2.644,-0.0008,-0.0068,0.0015,0.0045,-32.3
2.645,0.0,-0.0053,0.0022,0.0022,-32.6
2.646,0.0007,-0.003,0.0022,0.0045,-32.9
2.647,0.0007,0.0015,0.0007,0.0067,-33.2
2.648,0.0015,0.003,0.0007,0.0075,-33.5
2.649,0.0015,-0.0008,0.003,0.0052,-33.8
2.65,0.0015,0.0007,0.0045,0.003,-34.1
2.651,0.0007,-0.0008,0.0052,-0.0008,-34.4
2.652,0.0,0.0007,0.0082,-0.0038,-34.7
2.653,0.0007,0.0007,0.009,-0.0038,-35.1
2.654,0.0007,-0.003,0.0082,-0.0046,-35.4
2.655,0.0015,-0.003,0.0105,-0.0046,-35.7
2.656,-0.0008,-0.003,0.0105,-0.0015,-36.0
2.657,-0.0008,-0.0023,0.009,0.0,-36.3
2.658,0.0007,-0.0015,0.0105,0.0007,-36.6
2.659,0.0007,-0.0015,0.0105,0.003,-36.9
2.66,-0.0008,0.0,0.0082,0.0037,-37.3
2.661,-0.0008,0.0007,0.0097,0.0022,-37.5
2.662,-0.003,0.0007,0.012,-0.0015,-37.8
2.663,-0.003,0.0007,0.012,-0.0038,-38.1
2.664,-0.0008,0.0007,0.0105,-0.0023,-38.4
2.665,-0.0015,-0.0023,0.0097,-0.003,-38.7
2.666,-0.0008,-0.003,0.009,-0.0015,-39.0
2.667,0.0,-0.0023,0.0075,-0.0015,-39.3
2.668,-0.0015,-0.003,0.0075,-0.0046,-39.6
2.669,-0.0008,-0.003,0.009,-0.0053,-39.9
2.67,-0.0015,-0.0015,0.009,-0.0046,-40.2
2.671,0.0007,-0.003,0.009,0.003,-40.5
2.672,0.0007,-0.0038,0.0082,0.0067,-40.8
2.673,-0.0015,-0.0038,0.009,0.0052,-41.1
2.674,0.0,-0.003,0.0082,0.0022,-41.4
2.675,-0.0008,0.0007,0.0082,-0.003,-41.7
2.676,-0.0008,0.0045,0.0075,-0.0023,-42.0
2.677,-0.0023,0.003,0.0067,-0.0023,-42.3
2.678,-0.0008,0.0007,0.0067,-0.0046,-42.6
2.679,-0.0008,0.0,0.0045,-0.0046,-42.9
2.68,-0.0008,-0.0008,0.0052,-0.0053,-43.2
2.681,0.0007,-0.003,0.0052,-0.0068,-43.5
2.682,-0.0008,-0.0075,0.0052,-0.0075,-43.8
2.683,-0.0008,-0.0091,0.0067,-0.003,-44.1
2.684,-0.0008,-0.0098,0.006,0.0007,-44.4
2.685,0.0007,-0.012,0.0052,0.0052,-44.6
2.686,-0.0008,-0.012,0.0052,0.0067,-44.9
2.687,-0.0008,-0.0068,0.003,0.0052,-45.2
2.688,-0.0015,-0.0015,0.0045,0.0082,-45.5
2.689,-0.0015,0.0007,0.0045,0.003,-45.8
2.69,-0.0015,0.0007,0.0045,0.003,-46.1
2.691,-0.0015,-0.0008,0.0045,0.0015,-46.4
2.692,0.003,-0.0015,0.0045,-0.0053,-46.7
2.693,0.0015,-0.0023,0.006,-0.0068,-46.9
2.694,-0.0008,0.0007,0.0067,-0.0068,-47.3
2.695,-0.0023,0.0015,0.006,-0.0053,-47.5
2.696,-0.003,-0.0023,0.0052,-0.0008,-47.8
2.697,-0.0023,-0.0038,0.0045,0.0007,-48.1
2.698,-0.0038,-0.0046,0.003,0.0007,-48.4
2.699,-0.0023,-0.003,0.0052,0.0007,-48.7
2.7,-0.003,-0.0023,0.0067,0.0015,-49.0
2.701,-0.0046,-0.0023,0.0052,-0.0008,-49.2
2.702,-0.0038,-0.0008,0.0052,-0.003,-49.5
2.703,-0.0023,-0.0008,0.0045,-0.0091,-49.8
2.704,-0.0015,-0.0008,0.003,-0.0143,-50.0
2.705,-0.0008,-0.0008,0.0015,-0.0128,-50.3
2.706,-0.0015,-0.0015,-0.0015,-0.0075,-50.5
2.707,-0.0015,-0.0008,-0.0023,-0.0113,-50.8
2.708,-0.0008,-0.0015,-0.0015,-0.0233,-51.1
2.709,0.0007,-0.0008,-0.0015,-0.0293,-51.3
2.71,0.0,0.0007,-0.0015,-0.021,-51.6
2.711,0.0007,0.0,-0.0023,-0.0128,-51.9
2.712,0.003,0.0,-0.003,-0.0008,-52.2
2.713,-0.0008,0.0007,-0.003,0.0157,-52.4
2.714,0.0007,0.003,-0.0046,0.0232,-52.7
2.715,0.0015,0.003,-0.006,0.0277,-53.0
2.716,0.0,0.0037,-0.0053,0.0247,-53.2
2.717,0.0007,0.0045,-0.0053,0.018,-53.5
2.718,-0.0015,0.003,-0.0046,0.0165,-53.7
2.719,-0.0038,0.0022,-0.0046,0.021,-54.0
2.72,-0.0046,0.0037,-0.0046,0.027,-54.3
2.721,-0.003,0.006,-0.003,0.0255,-54.5
2.722,-0.0015,0.0045,-0.0046,0.0225,-54.7
2.723,-0.0008,0.003,-0.0023,0.0202,-54.9
2.724,-0.0008,0.0052,-0.0008,0.0172,-55.2
2.725,0.0007,0.0015,-0.003,0.018,-55.4
2.726,-0.0008,0.0007,-0.0038,0.0142,-55.7
2.727,-0.0008,0.0007,-0.0038,0.009,-55.9
2.728,0.0007,0.0,-0.0038,0.009,-56.1
2.729,0.0015,-0.0008,-0.0046,0.0082,-56.3
2.73,0.003,-0.0015,-0.0046,0.0052,-56.6
2.731,0.0015,-0.0008,-0.0038,-0.0015,-56.8
2.732,0.0,-0.0008,-0.003,-0.0046,-57.1
2.733,-0.0008,-0.0008,-0.003,-0.0053,-57.3
2.734,0.0,-0.0008,-0.003,-0.0105,-57.5
2.735,0.0015,-0.0008,-0.0023,-0.012,-57.7
2.736,0.0015,0.0,-0.0046,-0.0143,-58.0
2.737,0.003,-0.0008,-0.0075,-0.015,-58.2
2.738,0.0052,-0.0008,-0.0053,-0.0135,-58.5
2.739,0.0037,0.0007,-0.0038,-0.012,-58.7
2.74,0.003,0.0022,-0.0038,-0.0091,-59.0
2.741,0.0052,0.0007,-0.0046,-0.0083,-59.1
2.742,0.003,-0.0008,-0.0053,-0.0053,-59.3
2.743,-0.0008,0.0007,-0.006,-0.0068,-59.5
2.744,-0.0015,0.0007,-0.0038,-0.006,-59.8
2.745,-0.0023,0.0,-0.0015,-0.0053,-59.9
2.746,-0.003,0.0007,-0.0008,-0.0083,-60.2
2.747,-0.0015,0.0,0.0007,-0.0113,-60.4
2.748,-0.0015,-0.0008,-0.0008,-0.0105,-60.6
2.749,-0.0038,-0.003,-0.003,-0.0068,-60.8
2.75,-0.0038,-0.0023,-0.0046,-0.006,-61.0
2.751,-0.003,-0.003,-0.0053,-0.0023,-61.2
2.752,-0.0015,-0.0038,-0.0046,-0.0023,-61.4
2.753,-0.0008,-0.0038,-0.0053,-0.003,-61.6
2.754,-0.0015,-0.0046,-0.0053,-0.0015,-61.8
2.755,-0.0015,-0.0038,-0.0046,0.0,-62.1
2.756,0.0007,-0.0038,-0.0038,-0.0015,-62.2
2.757,0.0007,-0.0046,-0.003,-0.0046,-62.5
2.758,0.003,-0.0046,-0.0046,-0.0046,-62.7
2.759,0.003,-0.0046,-0.0046,-0.0046,-62.9
2.76,0.0045,-0.0023,-0.003,-0.0008,-63.1
2.761,0.0037,0.0,-0.0023,0.0022,-63.2
2.762,0.003,-0.0015,-0.0046,0.0045,-63.4
2.763,0.0022,-0.0015,-0.0038,0.0045,-63.5
2.764,0.0015,-0.0015,-0.0015,0.0052,-63.7
2.765,0.003,-0.0015,-0.0046,0.0052,-63.9
2.766,0.0045,-0.0015,-0.0046,0.003,-64.0
2.767,0.0045,-0.0008,-0.0046,0.0022,-64.1
2.768,0.0045,-0.0015,-0.0046,0.0015,-64.3
2.769,0.0015,-0.0015,-0.0008,0.0007,-64.4
2.77,0.0007,-0.0015,0.0,0.003,-64.6
2.771,0.0,-0.0015,0.0015,0.003,-64.7
2.772,0.0,-0.003,0.0015,0.003,-64.9
2.773,-0.0008,-0.0023,-0.0008,0.0015,-65.0
2.774,-0.0008,-0.0015,0.0007,-0.0008,-65.2
2.775,0.0007,-0.0015,0.0007,-0.0008,-65.3
2.776,0.0015,-0.0015,0.0015,-0.0008,-65.5
2.777,0.0022,-0.0008,0.0015,0.0007,-65.6
2.778,0.0007,-0.0015,0.0015,-0.0008,-65.7
2.779,0.0,-0.003,0.003,-0.003,-65.9
2.78,0.0015,-0.0015,0.0045,-0.0015,-66.1
2.781,0.0037,-0.0015,0.0045,-0.0008,-66.1
2.782,0.0045,-0.003,0.0052,0.0,-66.2
2.783,0.0045,-0.003,0.0067,0.0015,-66.2
2.784,0.0052,-0.0015,0.006,0.0007,-66.3
2.785,0.003,-0.0015,0.0045,0.0007,-66.3
2.786,0.0,-0.0015,0.0052,0.0007,-66.4
2.787,0.0015,0.0,0.0067,0.0022,-66.4
2.788,0.0,0.0,0.0067,0.006,-66.5
2.789,-0.0015,0.0007,0.0045,0.0082,-66.6
2.79,-0.0008,0.0007,0.0052,0.0052,-66.6
2.791,-0.0008,-0.0008,0.0052,0.0052,-66.6
2.792,0.0007,-0.0008,0.0075,0.0045,-66.7
2.793,-0.0008,-0.0015,0.0067,0.0045,-66.8
2.794,0.0015,-0.0015,0.0052,0.0052,-66.8
2.795,0.0007,0.0007,0.0067,0.0022,-66.9
2.796,-0.0008,0.0007,0.0052,0.0022,-66.9
2.797,-0.003,0.0,0.0052,0.0007,-67.0
2.798,-0.003,-0.0008,0.0052,-0.0008,-67.1
2.799,-0.003,0.0,0.003,0.0015,-67.1
2.8,-0.0015,0.0007,0.0022,0.0015,-67.2
2.801,-0.0023,-0.0008,0.0022,-0.0008,-67.2
2.802,-0.0015,-0.0023,0.0015,-0.0046,-67.2
2.803,0.0007,-0.0038,0.0015,-0.003,-67.2
2.804,0.0,-0.0046,0.0015,-0.0068,-67.2
2.805,-0.0015,-0.006,0.0007,-0.0091,-67.3
2.806,-0.0023,-0.0046,0.0,-0.0053,-67.3
2.807,-0.003,-0.0046,-0.0008,-0.0046,-67.3
2.808,-0.0015,-0.0046,-0.0015,-0.0046,-67.4
2.809,-0.0023,-0.003,-0.0015,-0.0053,-67.4
2.81,-0.0046,-0.0023,-0.0008,-0.0053,-67.4
2.811,-0.006,-0.0015,-0.0008,-0.0038,-67.5
2.812,-0.006,-0.0008,0.0007,0.0007,-67.5
2.813,-0.003,-0.0015,0.0015,0.0045,-67.5
2.814,-0.0015,-0.0015,0.003,0.0082,-67.5
2.815,-0.0008,-0.0008,0.0045,0.0105,-67.5
2.816,0.0007,-0.0008,0.0037,0.0082,-67.6
2.817,0.0,-0.0008,0.006,0.0045,-67.6
2.818,0.0015,-0.0008,0.0067,0.0045,-67.6
2.819,0.0015,0.0015,0.0075,0.0037,-67.6
2.82,-0.0008,0.003,0.009,0.0015,-67.7
2.821,-0.0023,0.0007,0.0067,0.0015,-67.7
2.822,-0.0038,0.0,0.0067,0.003,-67.7
2.823,-0.0015,0.0007,0.0052,0.0007,-67.7
2.824,-0.0008,0.0015,0.0052,0.0015,-67.7
2.825,0.0,0.0007,0.0075,0.0015,-67.7
2.826,0.0022,-0.0008,0.0067,0.0007,-67.7
2.827,0.0037,-0.0008,0.0067,0.0015,-67.7
2.828,0.0037,-0.0015,0.006,0.0007,-67.7
2.829,0.003,-0.0008,0.0037,0.003,-67.7
2.83,0.0015,-0.003,0.003,0.0,-67.7
2.831,-0.0008,-0.003,0.003,0.0,-67.7
2.832,0.0007,-0.0015,0.0022,0.003,-67.7
2.833,0.0007,-0.0015,0.003,0.003,-67.7
2.834,0.0007,-0.003,0.003,0.0022,-67.7
2.835,0.0007,-0.0023,0.0007,0.003,-67.6
2.836,0.0007,-0.0015,0.0,-0.0008,-67.6
2.837,0.0007,-0.003,0.0007,-0.0038,-67.6
2.838,-0.0023,-0.003,0.0007,-0.0038,-67.6
2.839,-0.003,-0.0038,-0.0008,-0.0046,-67.6
2.84,-0.0008,-0.0023,-0.0008,-0.0008,-67.6
2.841,-0.003,-0.0023,0.0,-0.0023,-67.6
2.842,-0.003,-0.0008,0.0007,-0.0015,-67.5
2.843,-0.0023,0.0007,0.0015,-0.0015,-67.5
2.844,-0.0015,0.0,-0.0008,-0.0053,-67.5
2.845,-0.0015,0.0007,0.0007,-0.0053,-67.4
2.846,-0.0008,0.0007,0.003,-0.0046,-67.4
2.847,-0.0015,0.0007,0.0007,-0.003,-67.3
2.848,-0.0015,-0.0008,-0.0008,-0.0008,-67.3
2.849,-0.0015,0.0,-0.0008,-0.0008,-67.2
2.85,-0.0008,0.0015,-0.0015,0.0007,-67.2
2.851,-0.0015,0.0007,-0.0015,-0.0008,-67.1
2.852,-0.003,0.0007,-0.0015,-0.0015,-67.1
2.853,-0.0015,0.0007,0.0007,-0.0015,-67.1
2.854,-0.0015,0.0007,0.0,-0.0023,-67.0
2.855,-0.0046,0.0007,-0.0023,0.0,-67.0
2.856,-0.0083,0.0015,-0.003,0.0015,-66.9
2.857,-0.0075,0.0015,-0.0008,0.0,-66.9
2.858,-0.0068,0.0015,0.003,0.0,-66.8
2.859,-0.0053,0.0015,0.0015,0.0,-66.8
2.86,-0.0023,0.0015,0.0007,-0.0008,-66.7
2.861,-0.0023,0.0007,0.003,-0.0008,-66.6
2.862,0.0007,-0.0008,0.0015,-0.0008,-66.6
2.863,0.0007,0.0007,0.0022,-0.0015,-66.5
2.864,-0.0008,0.0015,0.0022,-0.0015,-66.4
2.865,0.0015,-0.0008,0.0015,-0.0015,-66.3
2.866,0.0045,-0.0015,0.003,-0.003,-66.2
2.867,0.0037,-0.0008,0.0045,-0.0008,-66.1
2.868,0.0045,-0.0015,0.0052,-0.0015,-66.0
2.869,0.003,-0.003,0.0045,0.0,-65.9
2.87,0.003,-0.003,0.0045,0.0022,-65.8
2.871,0.003,0.0,0.0045,0.0015,-65.7
2.872,0.0045,-0.0015,0.003,0.0,-65.6
2.873,0.0052,-0.003,0.0015,-0.003,-65.5
2.874,0.0045,-0.003,-0.0008,-0.0008,-65.4
2.875,0.003,-0.003,0.0015,-0.0008,-65.3
2.876,0.003,-0.0038,0.0007,0.0007,-65.3
2.877,0.0022,-0.0038,-0.0008,0.0007,-65.2
2.878,0.0015,-0.0038,0.0015,0.0007,-65.1
2.879,0.003,-0.0053,0.0,0.0015,-65.0
2.88,0.0015,-0.003,-0.0023,0.0015,-64.9
2.881,0.0022,-0.003,-0.0038,0.0015,-64.8
2.882,0.0015,-0.0046,-0.0015,-0.0008,-64.6
2.883,0.003,-0.0023,0.0007,-0.0008,-64.5
2.884,0.003,-0.0008,0.0015,-0.0008,-64.4
2.885,0.0007,-0.0008,0.003,-0.0008,-64.2
2.886,0.003,-0.0015,0.003,0.0007,-64.1
2.887,0.0045,-0.003,0.003,0.0,-63.9
2.888,0.003,-0.0038,0.003,-0.0008,-63.8
2.889,0.003,-0.006,0.0045,-0.0008,-63.7
2.89,0.0022,-0.0053,0.006,0.0022,-63.5
2.891,0.0007,-0.0023,0.003,0.0037,-63.4
2.892,-0.0008,-0.0008,0.0015,0.0007,-63.2
2.893,0.0007,-0.003,0.003,0.0,-63.1
2.894,-0.0008,-0.0046,0.0015,-0.0008,-63.0
2.895,-0.0008,-0.0023,0.0,-0.0023,-62.8
2.896,0.0007,0.0007,-0.0008,-0.0008,-62.7
2.897,-0.0015,0.0007,-0.0015,0.0007,-62.6
2.898,-0.0015,0.0,-0.0008,-0.0008,-62.4
2.899,0.0,0.0,0.0,0.0,-62.3
2.9,-0.0008,-0.0008,-0.0008,0.0007,-62.1
2.901,-0.0015,0.0007,0.0007,0.0,-62.0
2.902,-0.0015,0.0022,0.0015,-0.0008,-61.8
2.903,-0.0023,0.0015,0.0007,0.0,-61.6
2.904,-0.003,0.0,-0.0008,0.0,-61.4
2.905,-0.0008,-0.0015,-0.003,-0.0038,-61.2
2.906,-0.0008,-0.003,-0.0046,-0.0038,-61.1
2.907,-0.0008,-0.0038,-0.003,-0.003,-60.9
2.908,0.0007,-0.0023,-0.003,-0.003,-60.7
2.909,0.0,-0.0008,-0.003,0.0007,-60.5
2.91,0.0007,-0.0015,-0.003,0.0007,-60.3
2.911,0.0015,-0.0008,-0.0015,0.0,-60.1
2.912,0.0015,0.0007,0.0,-0.0008,-59.9
2.913,0.0007,0.0007,0.0007,0.0007,-59.8
2.914,-0.0008,-0.003,0.003,0.0007,-59.6
2.915,-0.0008,-0.0038,0.0045,-0.0008,-59.4
2.916,-0.0023,-0.003,0.0037,-0.0023,-59.2
2.917,-0.0038,-0.0015,0.0022,-0.0015,-59.0
2.918,-0.003,-0.003,0.0007,0.0007,-58.9
2.919,-0.0015,-0.0008,0.0022,-0.0008,-58.7
2.92,-0.0015,0.0015,0.0015,0.0,-58.5
2.921,-0.0008,-0.0008,0.0015,0.0015,-58.3
2.922,-0.0008,-0.0008,0.003,0.0052,-58.1
2.923,-0.0015,0.0022,0.0022,0.003,-57.8
2.924,-0.0015,0.0015,0.003,0.0007,-57.6
2.925,-0.0008,0.0015,0.0015,0.0007,-57.4
2.926,0.0,-0.0023,0.0007,-0.0015,-57.2
2.927,0.0015,-0.0083,0.0015,-0.0015,-57.0
2.928,0.0022,-0.0091,0.0,0.0,-56.7
2.929,0.0007,-0.006,0.0007,0.003,-56.5
2.93,0.0007,-0.0008,0.0015,0.0022,-56.3
2.931,0.0007,0.0022,0.003,0.003,-56.1
2.932,0.0007,0.003,0.0045,0.0022,-55.8
2.933,0.0015,0.0045,0.0045,0.0,-55.6
2.934,-0.0008,0.003,0.0075,-0.0008,-55.4
2.935,-0.0008,0.003,0.009,-0.0015,-55.2
2.936,0.0007,0.0045,0.0067,0.0007,-55.0
2.937,0.0015,0.0022,0.0045,0.0015,-54.8
2.938,0.0015,0.0007,0.0045,-0.0008,-54.5
2.939,0.0015,-0.0008,0.003,0.0,-54.3
2.94,0.003,0.0015,0.0037,0.0045,-54.1
2.941,0.0007,0.0052,0.003,0.0045,-53.8
2.942,0.0007,0.0052,0.003,0.0037,-53.6
2.943,0.0015,0.0067,0.003,0.003,-53.3
2.944,0.003,0.0015,0.0045,0.0007,-53.1
2.945,0.0022,-0.0068,0.0045,-0.0023,-52.8
2.946,-0.0015,-0.0083,0.0045,-0.0038,-52.6
2.947,-0.003,-0.0068,0.0045,-0.0008,-52.3
2.948,-0.0038,-0.0046,0.0052,0.0007,-52.1
2.949,-0.0023,-0.0015,0.0067,0.0022,-51.8
2.95,-0.0015,-0.0015,0.0052,0.0007,-51.5
2.951,-0.0015,-0.003,0.006,-0.0015,-51.3
2.952,-0.0008,-0.006,0.003,-0.0023,-51.0
2.953,0.0007,-0.0046,0.0007,-0.0053,-50.8
2.954,0.0015,-0.003,0.0007,-0.0046,-50.5
2.955,-0.0015,-0.0023,-0.0008,-0.0008,-50.3
2.956,-0.0023,-0.0008,-0.0015,0.0015,-50.0
2.957,-0.0015,-0.0008,-0.0038,0.0052,-49.8
2.958,-0.0038,-0.0015,-0.0046,0.0045,-49.5
2.959,-0.0023,-0.003,-0.0015,0.0022,-49.3
2.96,-0.0008,-0.0053,-0.0015,0.003,-49.0
