Time_s,RF,BF,VM,ST,FX
0.0,-0.0135,0.0067,0.012,-0.105,15.8
0.001,-0.012,0.018,-0.0083,-0.0465,15.3
0.002,-0.0143,0.0075,-0.0143,0.012,15.3
0.003,-0.0181,0.0015,-0.0195,0.0412,15.3
0.004,-0.0203,-0.0053,-0.024,0.0442,15.1
0.005,-0.024,-0.0046,-0.0203,0.054,15.1
0.006,-0.0263,-0.0015,-0.0173,0.0697,15.0
0.007,-0.0293,0.0007,-0.0181,0.0772,14.7
0.008,-0.0323,0.006,-0.0218,0.0847,14.8
0.009,-0.0293,0.0022,-0.0233,0.0697,14.4
0.01,-0.024,-0.0038,-0.027,0.0652,14.6
0.011,-0.0143,-0.0083,-0.027,0.0555,14.4
0.012,-0.0046,-0.0083,-0.0218,0.0465,14.4
0.013,0.0015,-0.0113,-0.0143,0.0382,14.2
0.014,0.0067,-0.024,-0.0083,0.0217,14.1
0.015,0.0112,-0.0315,-0.0083,0.018,14.0
0.016,0.0157,-0.0346,-0.0098,0.0082,13.7
0.017,0.015,-0.0443,-0.0173,0.0067,13.9
0.018,0.0202,-0.0398,-0.0308,0.012,13.8
0.019,0.021,-0.0143,-0.0405,0.0202,13.7
0.02,0.0232,0.018,-0.0465,0.0217,13.7
0.021,0.0232,0.0517,-0.0518,0.015,13.8
0.022,0.0187,0.0802,-0.0585,0.012,13.4
0.023,0.018,0.09,-0.06,0.0052,13.5
0.024,0.0112,0.0817,-0.0638,-0.0195,13.0
0.025,0.006,0.0825,-0.066,-0.0803,13.3
0.026,0.0045,0.0682,-0.0608,-0.0983,12.9
0.027,0.0045,0.0165,-0.0548,-0.0495,13.2
0.028,0.0052,-0.0623,-0.048,-0.0091,12.8
0.029,0.0075,-0.1275,-0.0398,0.0615,13.0
0.03,0.0082,-0.1073,-0.0346,0.0735,12.6
0.031,0.0097,-0.0495,-0.0383,0.0015,12.7
0.032,0.0157,0.0232,-0.0338,0.009,12.6
0.033,0.0202,0.0592,-0.03,0.0045,12.7
0.034,0.0247,0.0495,-0.027,-0.0023,12.5
0.035,0.0262,0.0292,-0.0225,0.009,12.3
0.036,0.0307,-0.0503,-0.0225,-0.0068,12.3
0.037,0.039,-0.0856,-0.024,0.0007,12.3
0.038,0.0442,-0.0653,-0.0315,-0.0075,12.3
0.039,0.0412,-0.0405,-0.0285,-0.0068,12.1
0.04,0.0397,-0.0233,-0.0225,-0.006,12.2
0.041,0.0367,-0.0256,-0.0143,-0.0105,12.1
0.042,0.0382,0.0007,0.0007,-0.0098,12.1
0.043,0.039,0.018,0.0135,-0.0195,11.9
0.044,0.0322,0.021,0.0262,-0.0233,11.8
0.045,0.0255,0.0217,0.042,-0.0308,11.8
0.046,0.0195,0.012,0.0412,-0.0383,11.7
0.047,0.0165,0.0015,0.0315,-0.0473,11.6
0.048,0.0105,-0.0068,0.024,-0.045,11.6
0.049,0.0097,0.0007,0.0,-0.033,11.6
0.05,0.0127,0.0165,-0.0256,-0.012,11.5
0.051,0.0127,0.027,-0.0555,0.0592,11.4
0.052,0.018,0.015,-0.0818,0.1057,11.1
0.053,0.0202,0.012,-0.096,0.0817,11.3
0.054,0.0285,0.0217,-0.111,0.0705,11.2
0.055,0.0397,0.0195,-0.1103,0.0262,11.0
0.056,0.0495,0.0142,-0.1103,0.0337,11.0
0.057,0.0517,-0.0098,-0.0975,0.0735,10.7
0.058,0.048,-0.0128,-0.0721,0.0457,10.9
0.059,0.0405,-0.0015,-0.033,0.1005,10.8
0.06,0.0165,-0.0083,0.018,0.0832,10.7
0.061,-0.0195,-0.0046,0.0615,-0.1193,10.6
0.062,-0.0256,0.0045,0.105,-0.333,10.4
0.063,-0.0256,0.012,0.1402,-0.3406,10.5
0.064,-0.0383,0.0007,0.165,-0.1418,10.3
0.065,-0.0368,-0.0075,0.1822,0.045,10.6
0.066,-0.0533,-0.0008,0.1852,0.096,10.4
0.067,-0.0503,0.0022,0.174,0.0022,10.2
0.068,-0.0525,-0.0075,0.1642,-0.027,10.1
0.069,-0.0518,-0.0105,0.159,0.1447,10.2
0.07,-0.0458,-0.0098,0.156,0.2617,10.2
0.071,-0.0488,-0.0293,0.1575,0.0675,9.8
0.072,-0.0315,-0.0361,0.1597,-0.2041,9.9
0.073,-0.0293,-0.0428,0.147,-0.2085,9.7
0.074,-0.0158,-0.0353,0.1237,-0.033,9.6
0.075,-0.0091,-0.0083,0.1072,0.0067,9.7
0.076,0.0,0.0157,0.075,-0.0533,9.5
0.077,0.0067,0.0157,0.0495,-0.054,9.5
0.078,0.0015,0.03,0.0307,-0.0578,9.3
0.079,0.0045,0.0502,0.0082,-0.042,9.7
0.08,0.0037,0.0367,-0.0008,-0.1028,9.1
0.081,0.0097,0.0232,-0.0165,-0.1118,9.2
0.082,0.0007,0.0195,-0.024,0.0892,9.2
0.083,0.0007,0.024,-0.0278,0.1785,9.2
0.084,0.0007,0.0277,-0.0338,-0.0015,9.0
0.085,-0.0068,0.0225,-0.033,-0.0765,9.0
0.086,-0.0098,0.0165,-0.0361,0.0232,9.0
0.087,-0.0113,0.027,-0.0353,0.1162,8.8
0.088,-0.0113,0.033,-0.033,0.204,9.1
0.089,-0.0158,0.0427,-0.0233,0.186,8.7
0.09,-0.0038,0.0337,-0.0098,0.201,9.0
0.091,0.0052,-0.0263,-0.003,0.0675,8.5
0.092,0.0067,-0.0623,-0.0068,-0.105,8.7
0.093,0.0052,-0.0645,-0.012,-0.0465,8.4
0.094,0.0082,-0.075,-0.0158,-0.0608,8.4
0.095,0.0195,-0.0638,-0.0218,-0.039,8.3
0.096,0.0195,-0.0315,-0.0263,-0.0375,8.4
0.097,0.018,-0.0023,-0.0256,-0.0173,8.4
0.098,0.0195,0.0165,-0.024,0.1695,8.3
0.099,0.0112,0.0045,-0.0158,0.21,8.4
0.1,-0.0008,-0.0091,-0.0091,0.0495,8.1
0.101,0.0007,-0.0158,-0.0038,0.0532,8.2
0.102,-0.0053,-0.0368,0.0022,0.1237,8.1
0.103,-0.015,-0.0398,-0.0008,-0.024,8.1
0.104,-0.012,-0.0353,-0.0068,-0.1245,8.1
0.105,-0.0091,-0.0233,-0.012,-0.1733,7.8
0.106,-0.0068,0.0427,-0.0165,-0.1298,8.1
0.107,-0.0053,0.0637,-0.0165,-0.0555,8.0
0.108,0.0067,0.039,-0.0173,-0.0945,7.8
0.109,0.015,0.0217,-0.021,-0.0706,7.7
0.11,0.0097,0.0157,-0.0285,-0.0188,7.9
0.111,0.0052,0.0277,-0.0315,0.0367,7.8
0.112,-0.0008,0.0247,-0.0323,0.0555,7.7
0.113,-0.0075,0.012,-0.033,0.0352,7.9
0.114,-0.0128,-0.0293,-0.0308,-0.0518,7.8
0.115,-0.015,-0.063,-0.0278,-0.0405,7.7
0.116,-0.0218,-0.0706,-0.024,0.0675,7.7
0.117,-0.0256,-0.0346,-0.021,-0.0053,7.6
0.118,-0.0225,0.0157,-0.0173,-0.0758,7.6
0.119,-0.024,0.0375,-0.0195,-0.0765,7.6
0.12,-0.0218,0.0547,-0.0225,0.0082,7.6
0.121,-0.0195,0.0472,-0.0256,0.0345,7.6
0.122,-0.0143,0.009,-0.0278,-0.015,7.6
0.123,-0.0098,-0.039,-0.0285,0.0532,7.3
0.124,-0.0091,-0.0518,-0.0323,0.027,7.7
0.125,-0.0046,-0.0436,-0.0285,0.0052,7.4
0.126,-0.0008,-0.0473,-0.027,0.0517,7.4
0.127,0.0045,-0.0346,-0.0233,0.033,7.6
0.128,0.0135,-0.0181,-0.0068,-0.0203,7.5
0.129,0.009,-0.0098,0.009,0.0067,7.5
0.13,-0.0046,-0.0218,0.0195,-0.0353,7.6
0.131,-0.003,-0.0008,0.0195,-0.1628,7.5
0.132,0.003,0.078,0.0195,-0.1441,7.3
0.133,0.0015,0.1035,0.0232,-0.0856,7.3
0.134,0.0007,0.0517,0.0202,0.042,7.5
0.135,-0.0008,0.039,0.018,0.0727,7.2
0.136,-0.0053,0.084,0.0165,0.0945,7.5
0.137,-0.0083,0.069,0.0127,0.1065,7.2
0.138,-0.0068,-0.0218,0.0007,-0.0293,7.3
0.139,-0.0083,-0.0825,-0.0256,0.0,7.1
0.14,-0.006,-0.0953,-0.0195,-0.015,7.5
0.141,-0.0091,-0.0691,0.0187,-0.1148,7.1
0.142,-0.0083,-0.0173,0.0307,-0.1163,7.4
0.143,-0.0015,-0.042,0.0202,-0.0068,7.1
0.144,0.0022,-0.0525,-0.0023,0.0457,7.2
0.145,0.0105,-0.003,-0.0068,-0.033,7.1
0.146,0.0165,0.018,-0.0046,0.0127,7.0
0.147,0.0195,0.018,-0.0218,0.0592,7.0
0.148,0.0127,0.0015,-0.0323,0.054,6.9
0.149,0.0082,0.0022,-0.039,0.0502,6.8
0.15,0.0135,0.0075,-0.0293,0.057,6.7
0.151,0.0112,0.0127,-0.0225,0.1492,6.7
0.152,0.0097,0.0255,-0.0203,0.0292,6.4
0.153,0.0105,0.0232,-0.0113,-0.0945,6.5
0.154,0.0105,0.0045,-0.003,0.0892,6.3
0.155,0.0165,-0.0105,0.009,0.0997,6.3
0.156,0.0232,-0.0053,0.0157,0.021,6.2
0.157,0.0255,-0.0046,0.0105,0.0067,5.9
0.158,0.0232,-0.003,0.0112,-0.0698,5.8
0.159,0.027,0.0165,0.0202,-0.0503,5.6
0.16,0.0165,0.045,0.0262,-0.0181,5.7
0.161,0.009,0.0705,0.0262,-0.075,5.4
0.162,0.0142,0.0675,0.0247,-0.0495,5.3
0.163,0.0112,0.03,0.0015,0.0315,5.2
0.164,0.0112,-0.0068,-0.0278,-0.114,5.1
0.165,0.0067,-0.0233,-0.0495,-0.1178,5.0
0.166,0.003,-0.0233,-0.075,0.0315,4.9
0.167,-0.0038,-0.0233,-0.0983,0.006,4.9
0.168,-0.0181,-0.0233,-0.1185,0.0337,4.7
0.169,-0.0218,-0.0218,-0.1223,0.015,4.7
0.17,-0.0188,-0.021,-0.1006,0.0015,4.6
0.171,-0.0143,-0.015,-0.0615,0.0165,4.4
0.172,-0.0128,-0.0008,-0.0128,-0.0023,4.5
0.173,-0.0068,0.0142,0.0315,0.018,4.2
0.174,-0.0008,0.0225,0.06,0.0045,4.4
0.175,0.0052,0.033,0.069,0.0082,3.9
0.176,0.0157,0.03,0.06,-0.003,4.1
0.177,0.024,0.012,0.0322,-0.0068,3.9
0.178,0.036,-0.0068,0.0015,-0.0233,3.9
0.179,0.0382,-0.0225,-0.024,-0.0645,3.9
0.18,0.036,-0.0323,-0.0465,-0.0278,3.7
0.181,0.039,-0.0315,-0.0511,0.0787,3.7
0.182,0.042,-0.027,-0.0361,0.1762,3.6
0.183,0.0427,-0.0098,-0.0008,0.1717,3.8
0.184,0.0457,0.0127,0.0465,0.0217,3.6
0.185,0.0495,0.0142,0.09,-0.0885,3.6
0.186,0.0592,0.003,0.1252,-0.042,3.5
0.187,0.0435,0.0187,0.1485,-0.0165,3.4
0.188,-0.0015,0.0382,0.1552,0.057,3.5
0.189,-0.012,0.0337,0.144,0.0427,3.3
0.19,0.0067,0.0277,0.123,-0.0128,3.5
0.191,0.0127,-0.0068,0.0997,0.1147,3.3
0.192,0.0067,-0.0645,0.075,0.2295,3.6
0.193,0.009,-0.09,0.0555,0.2085,3.2
0.194,0.024,-0.0615,0.0382,-0.0413,3.2
0.195,0.0232,-0.0188,0.0277,-0.0788,3.3
0.196,0.0157,-0.006,0.027,0.0142,3.2
0.197,0.0082,0.0037,0.0255,-0.2213,3.2
0.198,0.006,0.018,0.024,-0.4875,3.0
0.199,-0.0023,0.0345,0.0277,-0.4096,3.2
0.2,-0.0143,0.0307,0.03,-0.1178,3.0
0.201,-0.0263,0.0127,0.021,-0.1028,3.2
0.202,-0.0346,0.0082,0.012,-0.1208,3.2
0.203,-0.027,0.0,0.0045,0.012,3.2
0.204,-0.0203,-0.0068,0.0007,0.0727,3.2
0.205,-0.0158,-0.015,0.0015,0.0832,3.1
0.206,-0.027,-0.0195,0.0007,0.0157,3.1
0.207,-0.045,-0.0143,-0.003,-0.0706,3.1
0.208,-0.0443,-0.0143,-0.0098,-0.0758,3.2
0.209,-0.042,-0.0105,-0.0083,0.0007,3.1
0.21,-0.0383,0.0045,-0.0023,0.0825,3.2
0.211,-0.0368,0.0165,-0.0008,0.0862,3.2
0.212,-0.0428,0.0187,-0.006,0.0322,3.0
0.213,-0.057,0.0157,-0.0158,0.1132,3.1
0.214,-0.0856,0.009,-0.0158,0.1725,3.1
0.215,-0.081,0.0045,-0.0218,0.0862,3.1
0.216,-0.0668,0.0097,-0.0308,0.1035,3.1
0.217,-0.0713,0.0165,-0.0405,0.1665,3.1
0.218,-0.0758,0.0075,-0.0518,0.12,3.1
0.219,-0.0706,-0.0075,-0.0645,-0.0158,3.2
0.22,-0.0555,-0.03,-0.075,-0.0105,3.2
0.221,-0.0555,-0.0436,-0.0863,0.0277,3.2
0.222,-0.0608,-0.0218,-0.0998,0.0255,3.2
0.223,-0.057,-0.0083,-0.1058,0.0645,3.3
0.224,-0.0495,-0.0091,-0.114,-0.0158,3.5
0.225,-0.0398,-0.0046,-0.1238,-0.0188,3.2
0.226,-0.0233,-0.0091,-0.1268,-0.012,3.4
0.227,-0.0218,-0.0083,-0.126,-0.039,3.5
0.228,-0.042,-0.0053,-0.1208,-0.0203,3.6
0.229,-0.0293,-0.0053,-0.1118,-0.0495,3.6
0.23,0.0142,-0.0038,-0.0923,-0.0293,3.5
0.231,0.0142,-0.0023,-0.0706,-0.0203,3.6
0.232,0.015,0.0045,-0.0533,-0.0353,3.5
0.233,0.0322,0.0135,-0.0383,-0.0555,3.6
0.234,0.0442,0.0195,-0.024,-0.0645,3.4
0.235,0.0727,0.0202,-0.0075,-0.042,3.4
0.236,0.0922,0.0187,0.003,-0.0256,3.6
0.237,0.1215,0.015,0.0187,-0.0053,3.3
0.238,0.1252,0.0097,0.0345,0.069,3.6
0.239,0.1012,-0.0015,0.045,0.1552,3.5
0.24,0.102,-0.0143,0.0517,0.0712,3.6
0.241,0.0975,-0.0218,0.0577,-0.0098,3.2
0.242,0.0795,-0.0158,0.0727,-0.0293,3.5
0.243,0.0705,-0.0128,0.078,0.0142,3.4
0.244,0.0607,-0.0015,0.0802,0.1417,3.3
0.245,0.0592,0.0217,0.0847,0.0457,3.3
0.246,0.054,0.012,0.087,-0.0503,3.2
0.247,0.0405,-0.0046,0.0907,-0.1006,3.3
0.248,0.0255,-0.0008,0.09,-0.1598,3.0
0.249,0.0157,0.0045,0.0907,-0.0218,3.3
0.25,0.03,0.0067,0.0952,0.0352,3.1
0.251,0.03,0.0135,0.1027,-0.0015,3.2
0.252,0.024,0.0352,0.1005,-0.0023,3.1
0.253,0.0247,0.0525,0.093,0.0517,3.1
0.254,0.0157,0.0442,0.0802,0.084,3.1
0.255,0.0652,0.0345,0.0652,0.036,3.0
0.256,0.0675,0.0225,0.0615,0.0322,3.0
0.257,0.0322,-0.033,0.0555,-0.0713,3.0
0.258,0.063,-0.096,0.042,-0.177,2.8
0.259,0.0405,-0.0893,0.0292,-0.1665,2.8
0.26,0.0165,-0.0428,0.0217,-0.1313,2.9
0.261,0.009,-0.0015,0.015,-0.1088,2.8
0.262,-0.0143,0.0142,0.0022,-0.0675,2.7
0.263,-0.0225,-0.003,-0.0113,0.0855,2.8
0.264,-0.0375,-0.003,-0.0188,0.1282,2.6
0.265,-0.0233,-0.0083,-0.027,0.093,2.8
0.266,-0.0135,-0.012,-0.0346,-0.078,2.5
0.267,-0.0165,0.006,-0.0315,-0.3915,2.6
0.268,-0.0128,0.018,-0.0256,-0.2543,2.6
0.269,-0.0323,0.012,-0.0165,0.075,2.6
0.27,-0.0645,0.0082,0.003,0.087,2.6
0.271,-0.0938,0.0165,0.0225,0.0285,2.5
0.272,-0.12,0.0045,0.0277,-0.0495,2.5
0.273,-0.0968,0.0142,0.0382,-0.0278,2.4
0.274,-0.078,0.0345,0.0472,0.1995,2.4
0.275,-0.0735,-0.0008,0.0517,0.2362,2.4
0.276,-0.042,-0.0615,0.057,0.1282,2.4
0.277,-0.0353,-0.0578,0.0555,0.0195,2.4
0.278,-0.0233,-0.0098,0.0532,-0.0188,2.4
0.279,-0.024,0.0045,0.0435,0.018,2.4
0.28,-0.0383,-0.0023,0.027,0.0067,2.2
0.281,-0.0555,0.0022,0.0037,0.0232,2.4
0.282,-0.0653,0.0187,-0.0203,0.0405,2.1
0.283,-0.0518,0.009,-0.0428,0.0255,2.3
0.284,-0.0278,-0.003,-0.0615,0.0112,1.9
0.285,-0.0188,0.0007,-0.0765,0.0877,2.2
0.286,-0.0188,0.0015,-0.0938,0.0877,2.0
0.287,-0.0405,0.0052,-0.1103,0.0277,2.2
0.288,-0.0653,-0.003,-0.1253,0.0405,2.1
0.289,-0.054,-0.0091,-0.1298,-0.0113,2.0
0.29,-0.054,-0.012,-0.1313,-0.042,1.9
0.291,-0.0555,-0.0015,-0.135,-0.0315,2.0
0.292,-0.1028,0.0157,-0.1298,-0.0038,2.0
0.293,-0.1328,0.027,-0.1253,-0.0346,2.0
0.294,-0.096,0.0367,-0.1223,-0.063,1.9
0.295,-0.06,0.0457,-0.117,-0.042,1.9
0.296,-0.006,0.0442,-0.1103,-0.0128,2.0
0.297,0.0472,0.0165,-0.1013,0.027,2.0
0.298,0.099,-0.0361,-0.0915,0.0015,1.9
0.299,0.1605,-0.09,-0.0765,-0.0158,1.9
0.3,0.2655,-0.084,-0.0645,-0.0691,1.6
0.301,0.4095,-0.0233,-0.048,-0.0383,2.1
0.302,0.4867,0.0322,-0.0278,0.0907,1.8
0.303,0.4065,0.0337,-0.0128,0.069,1.9
0.304,0.2167,0.003,-0.0015,0.009,1.7
0.305,0.0817,-0.0015,0.0067,0.0502,2.0
0.306,0.0495,0.0007,0.0157,0.0495,1.8
0.307,0.0127,0.012,0.0195,-0.0068,1.9
0.308,-0.0015,0.0277,0.0262,0.012,1.8
0.309,-0.0038,0.027,0.0315,0.0157,1.9
0.31,-0.033,0.018,0.0352,0.0097,2.0
0.311,-0.045,0.0067,0.036,-0.0165,1.7
0.312,-0.0653,0.0022,0.0367,-0.033,2.0
0.313,-0.0953,-0.0038,0.0405,0.009,1.8
0.314,-0.1328,-0.0091,0.0412,0.0037,2.0
0.315,-0.1433,-0.0128,0.0405,-0.042,1.8
0.316,-0.1208,-0.0091,0.042,-0.0548,2.1
0.317,-0.1193,-0.003,0.0442,0.0255,1.9
0.318,-0.114,0.0015,0.0435,0.0577,1.8
0.319,-0.0856,-0.0008,0.039,-0.0128,2.0
0.32,-0.0436,-0.0053,0.0405,-0.0413,1.8
0.321,0.0135,-0.0008,0.0405,-0.0735,2.0
0.322,0.0427,-0.0008,0.0352,-0.039,1.8
0.323,0.048,-0.003,0.0285,0.042,1.9
0.324,0.0337,-0.0038,0.0217,0.0052,2.0
0.325,0.0487,0.0007,0.0187,0.0285,1.9
0.326,0.0495,0.003,0.0135,0.0277,2.1
0.327,-0.0203,-0.0023,0.0127,-0.099,1.9
0.328,-0.0293,-0.0015,0.0142,-0.1411,2.1
0.329,0.0157,0.0067,0.0105,-0.0735,1.8
0.33,0.0577,-0.0008,0.0067,-0.0015,2.0
0.331,0.075,-0.0075,0.003,-0.045,2.0
0.332,0.063,-0.0023,-0.0023,-0.0998,1.8
0.333,0.0382,-0.0091,-0.0098,0.018,1.9
0.334,0.033,-0.0203,-0.0105,0.0682,1.8
0.335,0.069,-0.0181,-0.0083,-0.0465,1.9
0.336,0.0787,-0.0068,-0.0015,0.0292,1.9
0.337,0.078,-0.0008,0.0082,0.159,2.2
0.338,0.0802,0.0022,0.0127,0.0802,2.0
0.339,0.0825,0.006,0.0157,-0.0293,1.9
0.34,0.0937,0.0075,0.018,-0.0128,2.0
0.341,0.075,0.0165,0.0202,0.0435,2.1
0.342,0.0675,0.0225,0.0232,0.0315,2.1
0.343,0.0517,0.0105,0.021,-0.0278,1.9
0.344,-0.0293,-0.0008,0.0172,-0.063,2.1
0.345,-0.0765,-0.0015,0.0195,0.0277,1.9
0.346,-0.0713,-0.0046,0.0195,0.1297,2.2
0.347,-0.078,-0.0158,0.018,0.1605,1.9
0.348,-0.0818,-0.0188,0.0127,0.0457,2.1
0.349,-0.0818,-0.0068,0.0105,-0.0278,2.0
0.35,-0.1088,0.0015,0.0217,0.0495,2.0
0.351,-0.1868,0.0082,0.0375,0.0532,1.9
0.352,-0.2235,0.0015,0.042,0.003,2.0
0.353,-0.0938,-0.0075,0.039,-0.1253,1.9
0.354,-0.0105,-0.0046,0.0367,-0.1223,1.9
0.355,-0.0046,-0.0068,0.0352,-0.0383,1.9
0.356,0.0465,-0.0068,0.0307,-0.0691,1.9
0.357,0.0165,-0.003,0.0277,-0.1898,1.9
0.358,0.0142,0.0052,0.0315,-0.1853,2.0
0.359,0.018,0.0105,0.0315,0.0817,1.9
0.36,0.021,0.0082,0.0307,0.0712,2.0
0.361,0.0502,0.0112,0.0292,-0.0938,1.8
0.362,0.048,0.0015,0.0247,-0.1013,2.2
0.363,0.078,-0.012,0.0232,-0.0458,1.8
0.364,0.0885,-0.0105,0.0142,-0.0015,2.1
0.365,0.09,-0.003,0.0045,-0.0248,1.8
0.366,0.0855,-0.0023,-0.003,0.123,2.2
0.367,0.0855,-0.0046,-0.0068,0.1582,1.8
0.368,0.0705,0.003,-0.0083,0.0067,2.0
0.369,0.0442,0.0082,-0.0046,0.0172,2.0
0.37,0.039,0.0082,-0.0008,0.0517,2.1
0.371,0.0202,0.0007,0.0045,0.1057,1.9
0.372,0.0045,-0.0098,0.018,0.1117,2.0
0.373,-0.0158,-0.0046,0.0345,0.0427,2.0
0.374,-0.033,-0.0068,0.0555,0.0825,2.1
0.375,-0.0413,-0.0068,0.081,0.084,2.0
0.376,-0.042,-0.003,0.1042,0.0405,2.0
0.377,-0.0668,-0.0075,0.129,-0.0863,1.8
0.378,-0.1373,0.003,0.15,-0.147,2.0
0.379,-0.2003,0.0097,0.1665,-0.0008,1.8
0.38,-0.1658,0.0015,0.1762,-0.0735,2.0
0.381,-0.0555,0.0,0.177,-0.0503,1.9
0.382,-0.0105,0.0045,0.1725,0.0615,1.9
0.383,0.009,0.0082,0.1665,-0.0053,1.8
0.384,0.0555,0.009,0.1522,0.0187,2.1
0.385,0.0645,0.0082,0.135,-0.0195,1.9
0.386,0.0847,0.0015,0.1125,-0.0218,2.1
0.387,0.105,-0.006,0.087,-0.0795,1.9
0.388,0.1027,-0.0053,0.0637,-0.1426,2.0
0.389,0.1065,-0.003,0.0367,-0.0443,1.9
0.39,0.0915,-0.0015,0.0105,-0.0555,2.1
0.391,0.0682,-0.0015,-0.0128,-0.0503,1.8
0.392,0.0585,-0.0068,-0.0368,-0.06,2.0
0.393,0.0652,-0.012,-0.0578,-0.0825,1.8
0.394,0.054,-0.0203,-0.0773,0.0315,2.1
0.395,0.0352,-0.0256,-0.0968,0.2227,1.8
0.396,0.027,-0.027,-0.108,0.273,2.0
0.397,0.018,-0.0165,-0.1103,0.114,1.9
0.398,-0.0015,0.0007,-0.1088,0.1155,2.0
0.399,-0.0338,0.015,-0.1118,0.069,1.8
0.4,-0.0563,0.0247,-0.12,-0.1095,1.9
0.401,-0.057,0.0165,-0.1298,-0.0893,2.0
0.402,-0.0578,0.009,-0.1328,-0.0181,2.0
0.403,-0.0563,0.0097,-0.135,0.087,1.9
0.404,-0.0533,0.0015,-0.1441,0.009,1.8
0.405,-0.057,0.009,-0.1568,-0.1343,1.9
0.406,-0.0668,0.0165,-0.1688,-0.075,1.9
0.407,-0.0765,0.009,-0.1726,-0.1125,1.9
0.408,-0.0758,-0.0105,-0.1703,-0.0938,1.8
0.409,-0.0691,-0.0263,-0.1703,-0.0263,1.9
0.41,-0.0638,-0.0218,-0.1688,-0.0008,1.9
0.411,-0.0668,-0.0135,-0.1628,0.0142,1.8
0.412,-0.0818,0.0,-0.1568,-0.0008,1.9
0.413,-0.0945,0.0112,-0.1478,0.066,1.8
0.414,-0.0975,0.0142,-0.1388,0.054,2.1
0.415,-0.0795,0.009,-0.1275,-0.0645,1.7
0.416,-0.0495,-0.0023,-0.1178,-0.135,1.9
0.417,-0.0263,-0.0083,-0.1125,-0.075,1.5
0.418,-0.0091,-0.003,-0.1058,-0.0181,1.9
0.419,0.0082,0.0067,-0.0968,0.0202,2.0
0.42,0.0217,0.0045,-0.0833,0.0517,1.9
0.421,0.0307,0.0105,-0.0728,0.0502,2.0
0.422,0.0412,0.012,-0.0698,0.1357,1.8
0.423,0.069,-0.0083,-0.063,0.099,2.0
0.424,0.111,-0.0143,-0.0533,0.1042,1.8
0.425,0.1927,-0.0046,-0.0443,0.1995,1.8
0.426,0.3615,0.0052,-0.0368,0.1297,1.8
0.427,0.351,0.012,-0.0338,0.063,1.8
0.428,0.0045,0.018,-0.027,-0.0788,1.8
0.429,-0.237,0.0165,-0.0173,-0.0848,1.7
0.43,-0.3023,0.003,-0.0038,0.006,2.0
0.431,-0.273,0.0,0.0142,-0.0908,1.8
0.432,-0.1688,0.0,0.0202,-0.0256,1.9
0.433,-0.1703,-0.006,0.0225,-0.0308,1.8
0.434,-0.0923,-0.012,0.0195,-0.2543,1.8
0.435,-0.0165,-0.0165,0.0165,-0.2955,1.8
0.436,-0.0053,-0.012,0.0202,-0.1065,1.8
0.437,-0.0143,-0.0068,0.0232,0.0337,1.8
0.438,-0.039,-0.0023,0.0262,0.0855,1.8
0.439,-0.0368,-0.0091,0.0315,0.171,1.9
0.44,-0.0428,-0.0075,0.0405,0.0825,1.7
0.441,-0.0248,0.012,0.0382,0.0742,1.9
0.442,-0.0285,0.0067,0.0367,0.042,1.8
0.443,-0.0233,0.0052,0.0405,-0.1448,1.7
0.444,-0.0135,0.0007,0.045,-0.0128,1.8
0.445,0.0015,-0.0181,0.054,0.2092,1.7
0.446,0.018,-0.0173,0.0547,0.225,1.9
0.447,0.033,-0.0015,0.054,0.1537,1.7
0.448,0.0645,0.0067,0.0502,0.09,1.8
0.449,0.0787,0.003,0.0457,-0.033,1.6
0.45,0.0825,-0.0008,0.0412,-0.1426,1.8
0.451,0.0667,-0.0075,0.0345,-0.0713,1.6
0.452,0.0562,-0.0143,0.0382,0.0412,1.8
0.453,0.0502,-0.0158,0.0405,0.0322,1.6
0.454,0.0465,-0.003,0.042,-0.1313,1.5
0.455,0.0442,0.0097,0.048,-0.2385,1.8
0.456,0.0307,0.0127,0.0457,-0.1703,1.5
0.457,0.0255,0.018,0.0427,-0.1665,1.6
0.458,0.0202,0.0127,0.0412,-0.1403,1.6
0.459,0.0165,0.009,0.0367,-0.084,1.6
0.46,0.0067,0.0045,0.0352,-0.0803,1.7
0.461,-0.0015,-0.0023,0.0292,-0.0181,1.5
0.462,-0.012,-0.003,0.027,-0.0038,1.8
0.463,-0.0195,-0.0015,0.0232,0.0052,1.5
0.464,-0.0256,0.0007,0.0232,-0.0473,1.8
0.465,-0.0353,-0.0053,0.0225,-0.1673,1.5
0.466,-0.0428,-0.003,0.0202,-0.2198,1.6
0.467,-0.0525,0.0052,0.0172,-0.2198,1.5
0.468,-0.0638,0.0045,0.0142,-0.1095,1.7
0.469,-0.054,-0.0008,0.0195,0.084,1.6
0.47,-0.0165,-0.0158,0.0202,0.1875,1.6
0.471,0.0112,-0.0278,0.0202,0.129,1.9
0.472,0.0195,-0.0383,0.018,0.1155,1.5
0.473,0.0307,-0.0375,0.0165,0.1425,1.9
0.474,0.03,-0.0218,0.018,0.0847,1.5
0.475,0.021,-0.0098,0.0172,0.0322,1.8
0.476,0.0232,-0.0128,0.0165,-0.0691,2.1
0.477,0.0337,-0.0091,0.018,-0.0645,2.1
0.478,0.054,0.0075,0.018,0.0787,1.6
0.479,0.0682,0.0142,0.0247,0.0705,1.6
0.48,0.0667,0.0165,0.0345,0.087,1.8
0.481,0.057,0.0255,0.0352,0.1297,1.7
0.482,0.0292,0.018,0.0307,0.0007,1.8
0.483,0.0082,-0.0083,0.0202,0.0592,1.8
0.484,0.0067,-0.0173,0.0157,0.2055,1.8
0.485,0.012,-0.012,0.0172,0.1125,1.7
0.486,0.0195,0.0,0.0112,-0.0053,1.5
0.487,0.0195,0.012,0.0082,-0.1373,1.7
0.488,0.0142,0.0022,0.0067,-0.0765,1.6
0.489,0.003,-0.0165,0.009,0.1245,1.9
0.49,-0.0113,-0.0308,0.0082,0.2032,1.8
0.491,-0.027,-0.0315,0.0015,0.2722,2.1
0.492,-0.039,-0.0308,0.0045,0.216,1.9
0.493,-0.0443,-0.0143,0.0037,-0.0346,1.8
0.494,-0.0465,0.0105,0.003,-0.2333,1.8
0.495,-0.0443,0.009,0.0015,-0.1328,1.9
0.496,-0.0375,0.003,0.0,-0.0563,2.1
0.497,-0.0188,0.0105,0.0082,-0.114,1.9
0.498,0.0007,0.0142,0.0135,-0.042,1.9
0.499,0.018,0.0127,0.0157,-0.0158,2.1
0.5,0.0292,0.0247,0.0232,0.0142,2.1
0.501,0.0232,0.0142,0.0307,0.0727,2.1
0.502,0.0112,-0.0015,0.0277,0.057,2.0
0.503,-0.0008,-0.0038,0.0232,0.0405,2.2
0.504,-0.0053,-0.0038,0.024,0.0225,2.1
0.505,-0.0015,0.018,0.0202,0.0142,2.3
0.506,0.0052,0.0217,0.0172,0.0022,2.1
0.507,0.009,0.0232,0.0217,0.009,2.4
0.508,0.0022,0.0277,0.0217,0.009,2.0
0.509,-0.0158,0.0225,0.0187,0.0105,2.3
0.51,-0.0413,0.0217,0.0165,0.0195,2.2
0.511,-0.0585,0.0157,0.0135,0.0172,2.3
0.512,-0.0615,0.0142,0.012,0.0255,2.2
0.513,-0.0488,0.0157,0.012,0.0195,2.2
0.514,-0.0278,0.0157,0.0127,0.0217,2.2
0.515,-0.012,0.0165,0.012,0.0172,2.3
0.516,0.0015,0.0157,0.0127,0.0045,2.3
0.517,0.0052,0.0157,0.0105,-0.0038,2.3
0.518,0.0052,0.021,0.009,-0.0128,2.3
0.519,0.009,0.0217,0.0052,-0.0203,2.4
0.52,0.0187,0.0165,0.0052,-0.0181,2.2
0.521,0.033,0.018,0.0052,0.0412,2.4
0.522,0.0427,0.0112,0.0067,0.1005,2.2
0.523,0.0487,0.0015,0.0045,0.0517,2.5
0.524,0.0517,0.0,0.003,-0.021,2.1
0.525,0.0502,0.003,0.0015,-0.0405,2.4
0.526,0.0487,0.0015,0.0007,-0.0188,2.1
0.527,0.045,-0.0053,0.0045,0.006,2.2
0.528,0.0405,-0.0046,0.0052,-0.006,2.3
0.529,0.0307,-0.003,0.0045,0.018,2.2
0.53,0.021,-0.0023,0.0082,0.0142,2.1
0.531,0.0127,0.0007,0.0105,0.0045,2.1
0.532,0.0037,0.0037,0.009,0.0127,2.0
0.533,-0.0015,-0.0023,0.0052,-0.024,2.1
0.534,-0.0038,-0.0173,-0.0046,-0.0173,2.0
0.535,-0.0038,-0.0225,-0.0091,-0.0248,1.8
0.536,-0.0008,-0.0308,-0.0098,-0.0083,1.8
0.537,0.0015,-0.0368,-0.0113,0.0262,1.8
0.538,0.0015,-0.0315,-0.0098,0.0157,1.8
0.539,0.0037,-0.0225,-0.0091,-0.012,1.8
0.54,0.0052,-0.0046,-0.0046,-0.0893,1.8
0.541,0.0105,0.0052,-0.0015,-0.0653,2.0
0.542,0.018,-0.0068,-0.0053,0.0232,1.8
0.543,0.024,-0.0233,-0.0068,-0.078,1.8
0.544,0.0285,-0.0233,-0.0068,-0.1703,1.7
0.545,0.0292,-0.0195,-0.0091,-0.1883,1.8
0.546,0.0292,-0.0233,-0.0075,-0.0998,1.8
0.547,0.0292,-0.021,0.0007,0.0645,2.1
0.548,0.0255,-0.0218,0.0045,0.0262,2.1
0.549,0.021,-0.0195,-0.0015,0.0165,2.1
0.55,0.015,-0.0128,-0.0068,0.0262,1.9
0.551,0.0082,-0.015,-0.0105,0.0195,1.9
0.552,0.0022,-0.0113,-0.0165,0.0255,1.9
0.553,-0.0008,-0.0075,-0.0203,-0.027,1.8
0.554,-0.0046,-0.0105,-0.0233,-0.0128,1.9
0.555,-0.0053,-0.0128,-0.024,-0.0158,2.0
0.556,-0.0046,-0.012,-0.027,-0.0105,1.8
0.557,-0.0046,-0.012,-0.0263,-0.0143,2.1
0.558,-0.0046,-0.012,-0.0256,-0.0315,1.8
0.559,-0.0023,-0.0105,-0.024,-0.0218,2.1
0.56,-0.0008,-0.0105,-0.0203,-0.0263,1.7
0.561,0.0015,-0.006,-0.0203,-0.0691,1.9
0.562,0.0037,0.0037,-0.0218,-0.099,1.8
0.563,0.0045,0.0195,-0.0218,0.0217,1.8
0.564,0.0052,0.0187,-0.0181,0.0465,1.8
0.565,0.0045,0.009,-0.0135,-0.0195,1.8
0.566,0.0007,0.0172,-0.015,0.114,1.9
0.567,0.0,0.0045,-0.0113,0.1755,1.8
0.568,0.0007,-0.0143,-0.0046,0.0142,2.0
0.569,-0.0023,0.0097,-0.0008,-0.0278,1.8
0.57,-0.0053,0.0277,0.0045,0.0285,2.0
0.571,-0.006,0.0307,0.0037,0.0435,1.6
0.572,-0.0046,0.03,-0.0015,0.0787,1.9
0.573,-0.0046,0.0165,-0.006,0.0382,1.9
0.574,-0.006,0.0082,-0.0105,-0.0158,1.8
0.575,-0.0091,0.0045,-0.0158,-0.1133,1.8
0.576,-0.0083,0.0127,-0.012,-0.1635,1.6
0.577,-0.0068,0.0082,-0.0075,-0.0361,1.9
0.578,-0.0053,-0.0143,-0.0098,0.0675,1.7
0.579,-0.0053,-0.015,-0.0083,0.0945,1.8
0.58,-0.003,-0.0105,-0.006,0.0495,1.9
0.581,0.0015,-0.0143,-0.0068,-0.0233,1.8
0.582,0.0,-0.0091,-0.0068,-0.0653,2.0
0.583,0.0,0.0082,-0.0046,-0.1125,1.6
0.584,0.0,0.0217,0.0007,-0.1793,1.8
0.585,-0.0008,0.0127,0.0045,-0.0675,1.8
0.586,0.0007,-0.0091,0.0007,0.0352,2.0
0.587,0.0,-0.0113,0.0,-0.048,1.8
0.588,0.0007,-0.0038,0.0015,-0.0436,1.9
0.589,-0.0008,0.0082,0.003,-0.0728,1.7
0.59,-0.0038,0.0082,0.0052,-0.0878,1.9
0.591,-0.0083,0.0,0.0075,0.0015,1.8
0.592,-0.0091,0.0007,0.0082,0.0285,1.9
0.593,-0.012,-0.0015,0.0052,0.039,1.9
0.594,-0.0135,0.0015,0.003,0.075,1.8
0.595,-0.0158,0.0045,0.0,0.069,1.8
0.596,-0.0143,0.0037,-0.0008,0.0255,1.8
0.597,-0.0143,0.0045,-0.0015,0.045,1.9
0.598,-0.0143,-0.0015,-0.0015,0.0195,1.9
0.599,-0.012,-0.0008,0.0007,-0.1845,1.7
0.6,-0.0105,0.0082,0.0015,-0.2813,1.8
0.601,-0.0068,-0.0098,0.0052,-0.0353,1.8
0.602,-0.0008,-0.042,0.0105,0.1155,2.0
0.603,0.0007,-0.0315,0.0172,0.0195,1.8
0.604,0.0052,-0.0091,0.0202,0.0862,2.0
0.605,0.0067,-0.0008,0.0165,0.1087,1.7
0.606,0.0067,0.0105,0.0172,0.105,1.9
0.607,0.0075,0.006,0.012,0.1537,1.7
0.608,0.006,-0.0023,0.0052,0.0217,1.7
0.609,0.0067,-0.0053,0.0007,-0.1696,1.6
0.61,0.0075,-0.0105,-0.003,-0.21,1.7
0.611,0.0082,-0.0165,-0.0015,0.003,1.7
0.612,0.009,-0.0143,0.0015,0.0052,1.8
0.613,0.0082,-0.0083,-0.0015,0.0375,1.8
0.614,0.0067,-0.0091,-0.003,0.162,1.8
0.615,0.0052,-0.0091,-0.003,0.1035,1.7
0.616,0.0052,-0.0135,-0.0008,0.1815,1.8
0.617,0.0052,-0.0113,0.0015,0.048,1.7
0.618,0.0045,-0.0091,0.0015,-0.1943,1.7
0.619,0.0007,-0.0143,-0.0008,-0.2325,1.4
0.62,-0.003,-0.0098,0.0007,-0.111,1.7
0.621,-0.0053,-0.0128,0.0015,-0.0346,1.5
0.622,-0.0023,-0.0293,0.006,-0.0165,1.6
0.623,0.0007,-0.027,0.0045,0.075,1.5
0.624,0.0007,-0.0181,-0.0023,0.0615,1.5
0.625,0.0015,-0.0195,-0.003,0.1117,1.5
0.626,0.0015,-0.0181,-0.0023,0.1132,1.5
0.627,0.0015,-0.0083,0.003,0.1132,1.5
0.628,0.0015,0.0082,0.006,0.1522,1.4
0.629,0.0045,0.0195,0.0052,0.0525,1.5
0.63,0.006,0.0277,0.0052,-0.0165,1.3
0.631,0.0075,0.0382,0.0007,-0.0368,1.3
0.632,0.0067,0.0412,0.0007,0.0127,1.3
0.633,0.0067,0.0375,0.0007,0.0105,1.3
0.634,0.0052,0.0352,-0.0008,0.0187,1.4
0.635,0.0067,0.036,-0.003,0.0457,1.3
0.636,0.0082,0.0352,-0.003,0.0045,1.5
0.637,0.009,0.0352,-0.003,-0.0135,1.2
0.638,0.0172,0.039,-0.006,-0.0293,1.3
0.639,0.0315,0.0375,-0.0053,0.0292,1.2
0.64,0.0465,0.0232,-0.003,0.0517,1.4
0.641,0.0562,0.0142,-0.0038,0.0345,1.2
0.642,0.0555,0.012,-0.0038,0.069,1.3
0.643,0.048,0.009,-0.0053,0.0555,1.2
0.644,0.0345,0.0157,-0.0068,-0.0953,1.2
0.645,0.0165,0.0195,-0.0023,-0.156,1.3
0.646,0.0015,0.006,-0.0008,0.0075,1.2
0.647,-0.0113,-0.0105,-0.0008,-0.0046,1.3
0.648,-0.0181,-0.0091,-0.0015,-0.1441,1.0
0.649,-0.0218,0.0112,-0.0023,-0.0563,1.2
0.65,-0.0203,0.0202,-0.0046,0.1192,1.3
0.651,-0.0195,0.0165,-0.006,0.078,1.2
0.652,-0.0195,0.0225,-0.0053,-0.0083,1.1
0.653,-0.0203,0.009,-0.0015,0.012,1.2
0.654,-0.0203,-0.0015,0.0,-0.003,1.3
0.655,-0.0203,0.003,0.0022,-0.0113,1.0
0.656,-0.0181,-0.006,0.0067,-0.003,1.3
0.657,-0.0128,-0.0015,0.0127,0.0165,1.2
0.658,-0.0105,-0.0053,0.0067,0.0202,1.4
0.659,-0.0083,-0.0068,0.0045,0.0465,1.1
0.66,-0.0068,-0.0098,0.006,0.039,1.2
0.661,-0.0105,-0.0203,0.0,-0.0143,1.1
0.662,-0.0143,-0.0218,-0.003,0.0037,1.2
0.663,-0.0128,-0.024,-0.006,-0.0165,1.1
0.664,-0.0135,-0.0165,-0.0091,-0.0233,1.1
0.665,-0.015,-0.0143,-0.0075,-0.0203,1.1
0.666,-0.0135,-0.0113,-0.0053,-0.0173,1.1
0.667,-0.0128,-0.0083,-0.0023,0.0007,1.2
0.668,-0.0128,-0.0083,-0.0046,-0.0203,1.2
0.669,-0.0128,-0.0068,-0.0053,-0.033,1.0
0.67,-0.0143,-0.0083,-0.0046,-0.0765,1.2
0.671,-0.0128,-0.0128,-0.003,-0.0885,1.0
0.672,-0.012,-0.012,-0.003,-0.0346,1.3
0.673,-0.0098,-0.0128,-0.003,0.006,1.0
0.674,-0.0075,-0.0165,-0.003,0.0442,1.3
0.675,-0.0046,-0.0083,-0.0008,0.0562,1.1
0.676,0.0,-0.0008,0.0037,-0.0038,1.1
0.677,0.0037,0.0015,0.003,-0.0248,1.1
0.678,0.0082,0.0015,0.0037,-0.0353,0.9
0.679,0.0105,0.0022,0.003,-0.0998,1.2
0.68,0.0142,0.0007,0.0045,-0.0165,1.1
0.681,0.018,-0.0015,0.003,0.114,1.2
0.682,0.0157,-0.0015,0.0,0.1672,1.1
0.683,0.0157,-0.0068,0.0067,0.2347,1.1
0.684,0.018,-0.0091,0.0067,0.0742,1.0
0.685,0.0202,-0.0008,0.006,-0.2821,0.9
0.686,0.0195,0.0165,0.0067,-0.2985,1.0
0.687,0.0187,0.0105,0.0052,-0.0578,1.0
0.688,0.0165,-0.0143,0.0082,-0.057,1.2
0.689,0.0127,-0.0218,0.0075,-0.1208,0.9
0.69,0.0097,-0.0195,0.0045,-0.0225,1.2
0.691,0.009,-0.0091,0.0,0.0217,1.3
0.692,0.0097,-0.0038,-0.003,0.012,1.1
0.693,0.0082,-0.003,-0.0046,0.033,1.1
0.694,0.006,0.0022,-0.0015,0.0225,1.2
0.695,0.0052,0.0045,-0.0008,0.033,1.1
0.696,0.003,0.003,0.0,0.0195,0.9
0.697,0.0007,-0.0015,0.003,0.0195,1.3
0.698,0.0007,-0.0046,0.0015,0.0465,0.9
0.699,-0.0015,-0.0083,-0.0023,0.0277,1.3
0.7,-0.0046,-0.0091,-0.0038,0.0232,1.1
0.701,-0.003,-0.003,-0.0053,0.0277,1.3
0.702,-0.0038,-0.0023,-0.0068,0.078,1.0
0.703,-0.003,-0.0105,-0.0068,0.144,1.3
0.704,0.0,-0.027,-0.0053,0.18,1.3
0.705,0.0045,-0.0353,-0.0046,0.1657,1.2
0.706,0.0112,-0.0338,-0.0038,0.069,1.2
0.707,0.0157,-0.0256,-0.0038,-0.0533,1.3
0.708,0.0165,-0.0046,-0.0046,-0.1665,1.2
0.709,0.018,0.0112,-0.0068,-0.1741,1.2
0.71,0.0195,0.003,-0.0068,-0.1343,1.1
0.711,0.0172,-0.0023,-0.003,-0.192,1.2
0.712,0.0142,-0.012,0.003,-0.1635,1.2
0.713,0.0105,-0.0203,0.0097,-0.1478,1.3
0.714,0.0052,-0.0008,0.0135,-0.1823,1.2
0.715,0.0022,0.0015,0.009,-0.0008,1.4
0.716,0.0015,-0.0023,0.0015,0.042,1.3
0.717,0.0015,-0.003,-0.0015,0.0277,1.4
0.718,0.0022,-0.0038,0.0007,0.0855,1.2
0.719,0.0007,0.0067,0.0007,0.0337,1.4
0.72,0.0022,0.0105,0.0015,0.0652,1.5
0.721,0.0015,0.0165,0.003,0.0555,1.3
0.722,0.0015,0.012,0.0015,0.075,1.5
0.723,0.003,0.006,0.0007,0.0802,1.5
0.724,0.006,0.0067,0.0,0.0435,1.4
0.725,0.0052,0.0052,-0.0015,0.057,1.4
0.726,0.0045,0.0075,-0.0015,0.0435,1.3
0.727,0.0075,0.0075,-0.0023,0.0667,1.3
0.728,0.0067,0.0045,-0.003,0.0435,1.5
0.729,0.0067,0.0045,-0.0008,0.0097,1.5
0.73,0.0082,0.0157,0.003,0.003,1.4
0.731,0.0037,0.0157,0.0037,-0.0233,1.5
0.732,0.0,0.0045,0.0015,-0.0735,1.2
0.733,0.0007,-0.0046,0.0007,-0.075,1.5
0.734,0.0015,-0.0105,-0.0008,0.0255,1.3
0.735,0.0045,-0.0143,-0.0008,0.0735,1.6
0.736,0.0045,-0.012,-0.0015,0.123,1.4
0.737,0.0075,-0.006,0.003,0.2137,1.7
0.738,0.0075,-0.006,0.0045,0.1005,1.3
0.739,0.0037,0.0045,-0.0015,-0.093,1.3
0.74,-0.003,0.021,0.0007,-0.2108,1.4
0.741,-0.0083,0.033,0.0067,-0.1238,1.3
0.742,-0.0105,0.027,0.009,0.0435,1.3
0.743,-0.0105,0.012,0.0082,-0.0691,1.4
0.744,-0.0075,0.0052,0.0037,0.003,1.5
0.745,-0.0046,0.0045,0.0015,0.0562,1.4
0.746,-0.0008,0.015,0.0007,-0.0308,1.5
0.747,-0.0015,0.0082,-0.0023,0.0157,1.7
0.748,-0.0015,-0.0046,0.0007,-0.0765,1.3
0.749,-0.0008,-0.0053,0.0,-0.0885,1.5
0.75,-0.0008,-0.0105,0.0022,-0.0181,1.3
0.751,0.0,-0.0143,0.0067,0.0712,1.6
0.752,0.0007,-0.0173,0.0037,0.0712,1.3
0.753,0.003,-0.0098,0.0007,0.0202,1.5
0.754,0.003,-0.006,-0.0015,0.0502,1.3
0.755,0.006,-0.003,-0.0015,0.0397,1.5
0.756,0.0052,-0.0075,-0.0008,0.033,1.5
0.757,0.0052,-0.0143,-0.0023,-0.0436,1.5
0.758,0.0052,-0.0083,0.0,-0.081,1.4
0.759,0.0037,-0.0068,0.0007,-0.0578,1.3
0.76,0.0022,0.0,0.0015,-0.0293,1.6
0.761,-0.0015,0.0105,-0.0008,-0.0105,1.5
0.762,-0.0068,0.0082,-0.0008,-0.0143,1.5
0.763,-0.0083,0.0052,-0.0015,0.0015,1.5
0.764,-0.0091,0.0037,-0.0023,-0.0135,1.6
0.765,-0.006,-0.0015,-0.003,-0.0053,1.5
0.766,-0.0015,-0.003,-0.0023,0.0067,1.5
0.767,0.0,-0.0038,-0.0023,0.0382,1.7
0.768,-0.0015,-0.0015,-0.003,0.036,1.5
0.769,-0.0015,0.0007,-0.0015,0.0015,1.6
0.77,-0.003,0.0015,0.0015,0.0127,1.5
0.771,-0.0046,0.003,0.0015,-0.0023,1.5
0.772,-0.006,0.0007,0.0015,-0.003,1.6
0.773,-0.0068,0.0007,0.0045,-0.0015,1.5
0.774,-0.0053,0.0015,0.0007,-0.0008,1.5
0.775,-0.0046,0.003,0.0,0.0082,1.6
0.776,0.0022,0.0015,-0.0008,0.0037,1.8
0.777,0.0082,-0.0015,-0.003,0.006,1.7
0.778,0.0082,-0.0053,-0.0046,-0.003,1.6
0.779,0.006,-0.0113,-0.006,-0.0128,1.5
0.78,0.0022,-0.0135,-0.0053,-0.021,1.5
0.781,0.003,-0.0075,-0.0046,-0.0165,1.5
0.782,0.0,0.0015,-0.0015,-0.0181,1.4
0.783,0.0015,0.0052,-0.0015,0.0052,1.7
0.784,0.0022,0.0067,-0.0015,0.0802,1.5
0.785,0.003,-0.003,0.003,0.063,1.6
0.786,0.0052,-0.0098,0.0075,-0.0143,1.3
0.787,0.0067,0.0015,0.009,-0.0413,1.6
0.788,0.0067,0.0052,0.0082,-0.0473,1.5
0.789,0.006,-0.0038,0.0067,0.0157,1.5
0.79,0.012,-0.0091,0.0052,0.0015,1.5
0.791,0.0127,-0.0046,0.0052,-0.0368,1.5
0.792,0.0165,-0.0015,0.0045,0.009,1.8
0.793,0.0225,-0.003,0.0037,-0.0143,1.5
0.794,0.0217,0.0007,0.003,-0.0015,1.7
0.795,0.0202,-0.0008,0.0015,0.0045,1.5
0.796,0.018,-0.0008,-0.0015,-0.0053,1.6
0.797,0.0165,0.0,-0.003,0.0105,1.5
0.798,0.0165,0.0007,-0.003,0.0,1.7
0.799,0.0157,-0.0008,-0.0046,0.009,1.6
0.8,0.0142,-0.0015,-0.003,-0.0008,1.6
0.801,0.0112,0.0007,-0.003,0.0007,1.7
0.802,0.0067,0.0,-0.003,-0.0015,1.7
0.803,0.003,0.0045,-0.0015,-0.0053,1.6
0.804,0.006,0.0067,-0.0046,-0.0023,1.6
0.805,0.0105,0.006,-0.003,-0.0046,1.6
0.806,0.0165,0.003,-0.0008,-0.003,1.8
0.807,0.0112,0.0007,-0.0008,-0.0181,1.5
0.808,0.0052,0.0,0.0015,-0.0173,1.8
0.809,0.0037,0.0007,0.0015,-0.0218,1.6
0.81,-0.0008,0.0022,0.0022,-0.0203,1.9
0.811,0.0015,0.0037,0.003,-0.0015,1.7
0.812,0.0045,0.0015,0.0045,0.0052,1.7
0.813,0.0075,-0.0015,0.0045,0.0105,1.7
0.814,0.0082,0.0007,0.003,0.0075,1.8
0.815,0.0052,0.0,0.0037,0.027,1.8
0.816,0.0022,-0.0105,0.006,0.0442,1.9
0.817,-0.0023,-0.0105,0.0045,0.0105,1.8
0.818,-0.0038,-0.0038,0.0037,-0.0068,1.8
0.819,-0.0075,-0.003,0.0022,-0.0023,1.8
0.82,-0.0105,-0.0015,0.0007,-0.015,1.6
0.821,-0.0113,0.0007,-0.0038,-0.012,1.6
0.822,-0.012,0.0,-0.003,-0.0158,1.8
0.823,-0.0135,-0.0015,0.0,-0.015,1.8
0.824,-0.0128,-0.0008,0.0015,-0.0068,1.8
0.825,-0.0128,0.0015,0.0015,-0.0091,1.8
0.826,-0.0113,0.0007,0.0007,0.0015,1.9
0.827,-0.006,0.0015,0.0007,0.0217,1.8
0.828,-0.0015,-0.0015,0.0,0.0375,1.9
0.829,0.0007,-0.0008,-0.0008,0.0337,1.8
0.83,0.0022,0.0022,-0.0008,0.0165,1.9
0.831,-0.0008,0.0015,-0.0015,-0.0346,1.8
0.832,-0.0068,0.0015,0.0,-0.1215,1.8
0.833,-0.0068,-0.0015,0.0007,-0.0953,1.8
0.834,-0.0091,-0.0098,0.0007,0.06,1.9
0.835,-0.0105,-0.0195,0.0007,0.1252,1.9
0.836,-0.0135,-0.0128,-0.0008,0.1117,1.9
0.837,-0.0165,0.0105,0.0,0.1297,2.0
0.838,-0.015,0.03,0.003,-0.0346,1.8
0.839,-0.0128,0.0292,0.0052,-0.2385,1.8
0.84,-0.0075,0.0202,0.006,-0.198,2.1
0.841,-0.0046,0.0142,0.0052,-0.1155,1.9
0.842,-0.0023,0.0022,0.003,-0.0353,2.2
0.843,-0.0023,-0.0038,0.0015,0.0127,1.9
0.844,-0.0053,-0.006,-0.0046,0.0015,2.1
0.845,-0.0038,-0.0053,-0.0068,0.0015,1.8
0.846,0.0,0.0022,-0.0053,-0.012,2.1
0.847,0.003,0.0045,-0.003,0.0487,1.9
0.848,0.0067,-0.0015,0.0007,0.0855,2.2
0.849,0.0067,-0.0015,-0.0008,0.015,2.1
0.85,0.0052,-0.0015,-0.0046,0.003,2.0
0.851,0.0067,-0.0023,-0.006,0.042,2.2
0.852,0.006,0.0052,-0.003,0.0532,2.2
0.853,0.0037,0.006,0.0,0.042,2.2
0.854,0.0052,0.0007,0.0007,0.0187,2.1
0.855,0.0075,-0.0053,0.0007,0.0127,2.3
0.856,0.0067,-0.0068,0.003,0.009,2.4
0.857,0.0045,-0.006,-0.0008,-0.0008,2.2
0.858,0.0082,-0.0083,-0.0008,-0.0023,2.4
0.859,0.0067,-0.0068,0.0,0.0015,2.1
0.86,0.0052,-0.0068,0.0007,0.0007,2.4
0.861,0.0075,-0.0083,0.0007,0.0052,2.2
0.862,0.0082,-0.0075,-0.0008,0.0277,2.4
0.863,0.009,-0.0053,0.0022,0.0285,2.2
0.864,0.0127,-0.0008,0.0007,0.0165,2.5
0.865,0.018,0.0052,-0.0015,0.0195,2.4
0.866,0.0165,0.0067,-0.0015,-0.0098,2.5
0.867,0.012,0.0007,-0.003,-0.0533,2.3
0.868,0.0067,0.0,0.0,-0.024,2.5
0.869,0.0,0.0015,-0.0015,0.0015,2.6
0.87,-0.0046,0.0,-0.0015,-0.012,2.5
0.871,-0.006,0.0015,0.0007,0.003,2.6
0.872,-0.003,0.0015,0.0007,-0.0023,2.6
0.873,0.0007,0.003,-0.0008,0.0007,2.6
0.874,0.0045,0.0045,0.0,0.003,2.6
0.875,0.006,0.0007,0.0037,-0.003,2.6
0.876,0.003,0.0,0.0015,0.0045,2.7
0.877,-0.0023,-0.0023,-0.0008,-0.003,2.6
0.878,-0.0083,-0.0015,0.0,0.0,2.6
0.879,-0.0165,-0.0015,-0.0008,-0.0068,2.6
0.88,-0.0233,-0.0015,-0.0008,-0.012,2.7
0.881,-0.0256,-0.003,-0.0015,-0.012,2.9
0.882,-0.0256,-0.003,-0.0015,-0.0158,2.7
0.883,-0.0218,-0.0046,0.0007,-0.0143,2.9
0.884,-0.0181,-0.0068,0.0015,-0.0158,2.8
0.885,-0.0158,-0.0046,0.0022,-0.0128,2.8
0.886,-0.0113,-0.0038,0.0015,-0.0143,2.9
0.887,-0.0091,-0.0046,0.0007,-0.0143,2.8
0.888,-0.0075,-0.003,0.0007,-0.0083,3.1
0.889,-0.0091,-0.0023,0.0007,-0.0023,2.9
0.89,-0.0075,-0.0023,0.003,0.0015,3.1
0.891,-0.0046,-0.003,0.0022,0.006,2.8
0.892,-0.0046,0.0,-0.0008,0.0067,3.1
0.893,-0.0046,0.0015,0.0015,0.0067,2.9
0.894,-0.0023,-0.0008,0.0022,0.0097,3.1
0.895,-0.0008,0.0,0.003,0.009,3.1
0.896,-0.0038,0.0007,0.0022,0.0097,3.1
0.897,-0.006,-0.0008,0.0022,0.0097,3.1
0.898,-0.0053,0.0,-0.0008,0.0127,3.1
0.899,-0.0038,0.0007,-0.0023,0.0165,3.3
0.9,0.0015,0.0,-0.0015,0.0217,3.3
0.901,0.003,0.0007,-0.003,0.0232,3.3
0.902,0.0045,0.0,-0.003,0.0232,3.3
0.903,0.0022,-0.0008,-0.0046,0.0277,3.3
0.904,-0.0023,-0.0008,-0.0053,0.0255,3.6
0.905,-0.0008,-0.0008,-0.0046,0.0157,3.5
0.906,-0.0023,-0.0023,-0.003,0.0037,3.8
0.907,-0.0015,-0.0023,-0.003,-0.0083,3.4
0.908,-0.0046,-0.0038,-0.003,-0.0128,3.7
0.909,-0.0053,-0.0046,-0.0008,-0.015,3.6
0.91,-0.0008,-0.0046,-0.003,-0.0181,3.8
0.911,0.0037,-0.0068,-0.003,-0.0218,3.6
0.912,0.0082,-0.006,-0.0023,-0.0218,3.8
0.913,0.0127,-0.006,-0.0008,-0.0181,3.9
0.914,0.012,-0.0068,0.0015,-0.0188,3.9
0.915,0.0045,-0.0068,-0.0015,-0.0233,3.8
0.916,-0.0075,-0.0068,-0.0015,-0.0263,4.0
0.917,-0.0128,-0.0046,-0.003,-0.027,4.1
0.918,-0.0105,-0.0046,-0.0015,-0.0293,4.1
0.919,-0.0083,-0.0038,-0.0008,-0.0293,4.1
0.92,-0.0008,-0.003,0.0015,-0.027,4.1
0.921,0.0015,-0.0046,0.0037,-0.0308,4.1
0.922,0.0007,-0.003,0.0007,-0.033,4.4
0.923,-0.0015,-0.0023,0.0015,-0.0315,4.3
0.924,-0.0046,-0.0015,0.0015,-0.03,4.4
0.925,0.0007,-0.0015,0.003,-0.033,4.3
0.926,0.0045,-0.0008,0.0045,-0.0346,4.6
0.927,0.0067,0.0007,0.003,-0.0293,4.6
0.928,0.009,0.0007,0.0015,-0.0165,4.7
0.929,0.006,-0.0008,0.0007,0.0052,4.8
0.93,0.0045,-0.0008,0.0015,0.0225,4.7
0.931,0.012,0.0007,0.0037,0.039,4.8
0.932,0.018,0.0015,0.0045,0.0487,4.7
0.933,0.021,0.0015,0.003,0.0502,4.9
0.934,0.0277,0.0007,0.0045,0.051,4.9
0.935,0.027,0.0022,0.003,0.0525,4.9
0.936,0.0187,0.0015,0.0015,0.0547,5.3
0.937,0.0165,0.0022,0.0015,0.0525,4.9
0.938,0.018,0.0052,0.0037,0.054,5.3
0.939,0.0225,0.0067,0.0045,0.0502,5.1
0.94,0.0277,0.0082,0.0037,0.0435,5.3
0.941,0.0292,0.0082,0.0037,0.0412,5.3
0.942,0.027,0.0067,0.0037,0.0367,5.4
0.943,0.0225,0.0067,0.0037,0.03,5.5
0.944,0.0202,0.0045,0.0052,0.018,5.5
0.945,0.0195,0.0015,0.0052,0.006,5.8
0.946,0.0165,0.003,0.0045,-0.0008,5.7
0.947,0.0127,0.003,0.003,-0.003,5.8
0.948,0.015,0.0022,0.0045,-0.0075,5.8
0.949,0.015,-0.0008,0.0052,-0.0105,5.9
0.95,0.012,0.0007,0.0045,-0.012,6.0
0.951,0.0097,-0.003,0.0067,-0.0143,6.0
0.952,0.0037,-0.0046,0.006,-0.0143,6.1
0.953,-0.0038,-0.0015,0.0045,-0.0165,6.1
0.954,-0.0083,0.0,0.0045,-0.0218,6.5
0.955,-0.0068,0.0015,0.0007,-0.0218,6.3
0.956,-0.0023,0.0007,0.0015,-0.0188,6.6
0.957,0.0007,0.0015,0.0007,-0.0165,6.4
0.958,0.003,0.0015,-0.0015,-0.0158,6.8
0.959,0.0,0.0015,-0.0008,-0.0165,6.7
0.96,-0.0015,0.0007,0.0007,-0.0165,6.9
0.961,-0.0023,-0.0023,-0.0008,-0.0181,7.0
0.962,-0.0023,-0.003,-0.0015,-0.0203,7.0
0.963,0.0052,-0.003,-0.0015,-0.024,7.2
0.964,0.012,-0.0015,-0.0015,-0.024,7.3
0.965,0.0142,-0.0008,-0.0015,-0.0203,7.3
0.966,0.0157,-0.0015,-0.003,-0.0203,7.6
0.967,0.0172,-0.0015,0.0,-0.0188,7.5
0.968,0.0195,0.0,0.0007,-0.0181,7.8
0.969,0.0202,0.0007,0.0015,-0.0181,7.8
0.97,0.0157,0.0022,0.0045,-0.0165,8.1
0.971,0.012,0.0052,-0.0008,-0.0158,7.8
0.972,0.0067,0.0045,-0.003,-0.0143,8.1
0.973,0.0045,0.0052,-0.0008,-0.012,8.1
0.974,0.0007,0.0045,-0.0015,-0.0105,8.4
0.975,-0.006,0.0045,-0.0015,-0.0091,8.6
0.976,-0.0083,0.0052,-0.0023,-0.0098,8.5
0.977,-0.0083,0.0037,-0.0023,-0.0091,8.9
0.978,-0.0068,0.006,-0.0015,-0.0075,8.6
0.979,-0.0068,0.0075,-0.0015,-0.0053,9.0
0.98,-0.012,0.0067,0.0,-0.0023,9.1
0.981,-0.0188,0.0067,0.0015,0.0015,9.2
0.982,-0.0218,0.0037,0.0015,0.003,9.3
0.983,-0.0218,0.0007,-0.0008,0.0015,9.4
0.984,-0.0248,-0.003,-0.0046,0.0052,9.6
0.985,-0.0293,-0.0083,-0.0046,0.0045,9.5
0.986,-0.0346,-0.0091,-0.0015,0.003,9.9
0.987,-0.0346,-0.0105,0.0007,0.0007,9.9
0.988,-0.0353,-0.0113,-0.0008,-0.0038,10.2
0.989,-0.0353,-0.0083,0.0,-0.006,10.1
0.99,-0.0315,-0.0053,0.0,-0.0075,10.4
0.991,-0.0233,-0.003,-0.0008,-0.0143,10.4
0.992,-0.0173,-0.0046,-0.0015,-0.0195,10.7
0.993,-0.015,-0.0008,-0.003,-0.0203,10.7
0.994,-0.0113,0.0075,-0.0053,-0.0218,10.7
0.995,-0.0053,0.0045,-0.0083,-0.0203,11.0
0.996,-0.0046,0.0007,-0.0128,-0.0188,11.0
0.997,-0.0008,0.0007,-0.0143,-0.0195,11.2
0.998,0.009,-0.0068,-0.0203,-0.0158,11.3
0.999,0.015,-0.006,-0.021,-0.0128,11.5
1.0,0.0247,-0.003,-0.0203,-0.0105,11.8
1.001,0.0307,-0.0008,-0.024,-0.0091,11.7
1.002,0.033,-0.003,-0.0278,-0.0128,12.1
1.003,0.033,-0.0053,-0.0346,-0.0158,12.0
1.004,0.0307,-0.0091,-0.0338,-0.0173,12.4
1.005,0.0277,-0.0128,-0.0308,-0.0181,12.3
1.006,0.018,-0.0105,-0.0293,-0.0181,12.5
1.007,0.0082,-0.0091,-0.0256,-0.0091,12.7
1.008,-0.0008,-0.0113,-0.0218,0.0165,12.9
1.009,-0.0068,-0.012,-0.0165,0.027,13.0
1.01,-0.0091,-0.0068,-0.0135,-0.0098,13.2
1.011,-0.0083,0.0,-0.0083,-0.024,13.5
1.012,-0.0046,0.0037,0.0007,-0.0015,13.5
1.013,0.0007,0.003,0.0082,0.006,13.8
1.014,0.0052,0.0045,0.0082,0.018,13.8
1.015,0.0082,0.0037,0.0135,0.0262,13.9
1.016,0.006,0.003,0.018,0.033,14.3
1.017,0.0052,0.009,0.0165,0.039,14.3
1.018,0.0045,0.0082,0.0195,0.0405,14.6
1.019,0.003,0.0045,0.0202,0.0502,14.5
1.02,0.0015,0.0052,0.021,0.0487,14.8
1.021,-0.0008,0.0052,0.0217,0.0442,15.0
1.022,-0.0008,0.0052,0.024,0.0382,15.1
1.023,-0.0008,0.0052,0.024,0.0352,15.2
1.024,-0.003,0.0112,0.0187,0.0397,15.3
1.025,-0.0083,0.0135,0.0142,0.0502,15.6
1.026,-0.0128,0.0075,0.012,0.0592,15.4
1.027,-0.015,0.0,0.0127,0.0592,15.7
1.028,-0.0113,-0.003,0.012,0.063,15.8
1.029,-0.0053,-0.0023,0.0112,0.0525,16.2
1.03,-0.0053,-0.0008,0.012,0.0382,16.2
1.031,-0.0046,-0.0008,0.0225,0.036,16.3
1.032,-0.0008,-0.0068,0.0292,0.0495,16.5
1.033,0.0052,-0.0046,0.0187,0.0292,16.6
1.034,0.0075,0.012,0.0187,-0.012,16.8
1.035,0.0075,0.0187,0.021,-0.003,16.9
1.036,0.0105,0.0195,0.0232,-0.0008,17.0
1.037,0.0097,0.0105,0.0232,0.0007,17.3
1.038,0.0127,0.003,0.0142,0.003,17.2
1.039,0.0135,0.0007,0.009,0.0037,17.6
1.04,0.012,-0.0098,0.003,0.0217,17.6
1.041,0.0082,-0.0188,-0.0023,0.018,17.9
1.042,0.0045,-0.024,-0.0015,0.0172,17.9
1.043,0.0,-0.027,0.003,0.0142,18.3
1.044,-0.0053,-0.027,0.0075,0.0,18.3
1.045,-0.0091,-0.0203,0.0127,-0.0083,18.4
1.046,-0.0098,-0.0128,0.018,-0.015,18.6
1.047,-0.0083,-0.0075,0.0165,-0.0091,18.7
1.048,-0.006,-0.0008,0.0157,-0.0143,19.0
1.049,-0.0038,0.009,0.009,-0.0181,18.9
1.05,0.0,0.024,0.0007,-0.0098,19.4
1.051,0.0067,0.0367,-0.0053,0.0022,19.3
1.052,0.0097,0.0442,-0.0128,0.0157,19.7
1.053,0.0105,0.0405,-0.0256,0.0195,19.8
1.054,0.0112,0.0315,-0.045,0.018,20.0
1.055,0.0165,0.0292,-0.0615,0.012,20.2
1.056,0.0202,0.024,-0.0706,0.0082,20.2
1.057,0.0217,0.0195,-0.084,-0.0015,20.7
1.058,0.0262,0.015,-0.0893,-0.0181,20.7
1.059,0.0292,0.0112,-0.084,-0.0346,21.1
1.06,0.033,0.012,-0.0743,-0.0518,21.2
1.061,0.0375,0.0052,-0.0593,-0.0653,21.3
1.062,0.039,-0.0075,-0.0361,-0.0803,21.6
1.063,0.0442,-0.0293,-0.0023,-0.0825,21.7
1.064,0.0457,-0.0428,0.0195,-0.078,21.9
1.065,0.0345,-0.045,0.0255,-0.0833,22.2
1.066,0.0232,-0.048,0.0255,-0.075,22.5
1.067,0.0142,-0.0465,0.012,-0.0233,22.7
1.068,0.0052,-0.0533,0.0082,0.0165,22.6
1.069,-0.003,-0.0585,0.0165,-0.039,23.2
1.07,-0.0105,-0.0623,0.0232,-0.0863,23.1
1.071,-0.0158,-0.0645,0.0217,-0.0833,23.6
1.072,-0.024,-0.0668,0.0105,-0.1021,23.5
1.073,-0.0368,-0.0818,0.006,-0.1028,24.0
1.074,-0.045,-0.0878,-0.0008,-0.0968,24.2
1.075,-0.0511,-0.0735,-0.003,-0.084,24.4
1.076,-0.0563,-0.0518,0.0045,-0.054,24.6
1.077,-0.0645,-0.0315,0.015,-0.0083,24.8
1.078,-0.0728,-0.0218,0.0217,0.033,25.2
1.079,-0.0773,-0.0128,0.0225,0.0075,25.3
1.08,-0.084,0.009,0.0255,-0.0195,25.7
1.081,-0.0856,0.0277,0.0277,-0.0173,25.9
1.082,-0.0721,0.0382,0.0307,-0.0098,26.1
1.083,-0.0615,0.045,0.0345,0.0082,26.4
1.084,-0.054,0.0405,0.036,0.0045,26.5
1.085,-0.0533,0.0352,0.0345,0.0082,26.9
1.086,-0.054,0.0375,0.0307,0.0165,27.0
1.087,-0.0458,0.0382,0.0277,0.0225,27.5
1.088,-0.0293,0.0397,0.0262,0.048,27.4
1.089,0.0112,0.0412,0.027,0.06,27.9
1.09,0.069,0.0367,0.0262,0.0607,27.9
1.091,0.1162,0.0315,0.0247,0.0555,28.3
1.092,0.129,0.0307,0.021,0.0442,28.4
1.093,0.1155,0.0352,0.0127,0.0367,28.7
1.094,0.0892,0.0352,0.0082,0.0375,29.0
1.095,0.0712,0.0352,0.0,0.0345,29.1
1.096,0.0742,0.0352,-0.003,0.033,29.5
1.097,0.0892,0.03,-0.0023,0.0375,29.5
1.098,0.1065,0.0255,0.0007,0.0375,29.9
1.099,0.1072,0.0217,0.0015,0.0382,30.1
1.1,0.1095,0.0202,-0.0038,0.033,30.3
1.101,0.1102,0.018,-0.0023,0.03,30.7
1.102,0.0937,0.0135,0.003,0.033,30.8
1.103,0.0802,0.0105,0.009,0.0352,31.1
1.104,0.0472,0.0112,0.0165,0.0352,31.2
1.105,-0.0053,0.0105,0.0225,0.0277,31.6
1.106,-0.0495,0.0067,0.0292,0.0202,31.8
1.107,-0.078,0.003,0.033,0.0187,32.2
1.108,-0.0856,-0.0023,0.036,0.0217,32.2
1.109,-0.0615,-0.0091,0.0367,0.0202,32.4
1.11,-0.0278,-0.0105,0.036,0.018,32.7
1.111,-0.003,-0.0083,0.0345,0.0202,32.9
1.112,0.012,-0.0091,0.0322,0.0255,33.2
1.113,0.0292,-0.0105,0.0315,0.0637,33.3
1.114,0.0457,-0.015,0.0277,0.0975,33.5
1.115,0.0435,-0.0165,0.0255,0.0622,33.8
1.116,0.0457,-0.0158,0.0217,0.024,33.7
1.117,0.0495,-0.0143,0.0202,0.0285,33.5
1.118,0.042,-0.0128,0.0187,0.018,33.3
1.119,0.0405,-0.015,0.0165,0.009,33.6
1.12,0.042,-0.0181,0.0165,0.0022,34.2
1.121,0.0352,-0.0128,0.009,-0.0113,35.0
1.122,0.0322,-0.0098,-0.0068,-0.015,35.3
1.123,0.033,-0.0098,-0.027,-0.0158,35.5
1.124,0.0292,-0.0053,-0.048,-0.0098,35.4
1.125,0.0232,-0.0046,-0.0691,-0.0083,35.5
1.126,0.027,-0.0015,-0.0945,-0.006,35.5
1.127,0.0255,-0.0008,-0.1148,-0.0046,35.6
1.128,0.015,0.0007,-0.1155,-0.0083,35.8
1.129,0.0105,0.003,-0.1073,-0.0083,36.0
1.13,-0.0091,-0.0008,-0.0878,-0.0091,36.2
1.131,-0.024,-0.0046,-0.0638,-0.0105,36.5
1.132,-0.0338,-0.0038,-0.0525,-0.0165,36.5
1.133,-0.0511,0.0,-0.0346,-0.0158,36.9
1.134,-0.0608,0.003,0.003,-0.0218,36.9
1.135,-0.0728,0.0015,0.0307,-0.027,37.3
1.136,-0.084,0.0007,0.0435,-0.024,37.1
1.137,-0.0795,0.003,0.0562,-0.0278,37.6
1.138,-0.0706,0.003,0.0622,-0.027,37.6
1.139,-0.0623,0.0045,0.06,-0.0225,38.0
1.14,-0.0638,0.0045,0.0577,-0.0143,38.0
1.141,-0.0713,0.0,0.0577,-0.0098,38.2
1.142,-0.0765,-0.0023,0.0555,-0.0113,38.2
1.143,-0.084,-0.0083,0.0465,-0.0143,38.5
1.144,-0.0953,-0.0098,0.0352,-0.0218,38.6
1.145,-0.1028,-0.0105,0.0232,-0.0293,38.7
1.146,-0.1095,-0.0068,0.012,-0.0398,39.0
1.147,-0.126,-0.0023,0.0007,-0.0458,39.2
1.148,-0.1253,-0.006,-0.0098,-0.042,39.3
1.149,-0.12,-0.003,-0.0181,-0.0346,39.8
1.15,-0.1065,-0.0023,-0.0293,-0.0346,40.0
1.151,-0.0968,0.0,-0.0398,-0.0353,40.2
1.152,-0.1013,0.003,-0.0465,-0.0285,40.5
1.153,-0.0788,0.0037,-0.0518,-0.0293,40.7
1.154,-0.0533,0.003,-0.0533,-0.0293,40.9
1.155,-0.0405,0.0022,-0.0533,-0.027,41.1
1.156,-0.0233,0.0075,-0.054,-0.024,41.5
1.157,0.0,0.006,-0.0533,-0.0195,41.5
1.158,0.009,0.0022,-0.054,-0.0203,41.9
1.159,0.0157,0.0007,-0.0503,-0.0188,42.2
1.16,0.0217,0.0,-0.0458,-0.0203,42.3
1.161,0.0412,0.003,-0.045,-0.024,42.9
1.162,0.0532,0.003,-0.045,-0.0233,42.7
1.163,0.057,0.006,-0.0413,-0.0263,43.2
1.164,0.0742,0.0082,-0.039,-0.0233,43.2
1.165,0.0802,0.0082,-0.0383,-0.0158,43.9
1.166,0.0862,0.0075,-0.0346,-0.0068,43.9
1.167,0.0772,0.0045,-0.0323,0.003,44.2
1.168,0.084,0.0045,-0.0308,0.0112,44.4
1.169,0.0892,0.0015,-0.027,0.0195,44.7
1.17,0.072,0.0007,-0.0256,0.024,45.0
1.171,0.0667,0.0007,-0.0233,0.0277,45.1
1.172,0.0637,-0.0008,-0.0195,0.0322,45.3
1.173,0.0517,-0.003,-0.0143,0.0375,45.5
1.174,0.0255,-0.0038,-0.0083,0.0427,45.7
1.175,0.0172,-0.0053,-0.003,0.042,46.3
1.176,0.0142,-0.0053,0.0022,0.0397,46.2
1.177,0.0037,-0.0053,0.0075,0.0405,46.7
1.178,-0.0038,-0.0053,0.0142,0.0435,46.5
1.179,-0.0023,-0.0075,0.0232,0.0457,47.1
1.18,0.006,-0.0091,0.0315,0.045,47.0
1.181,-0.0008,-0.0083,0.036,0.048,47.6
1.182,-0.0091,-0.006,0.039,0.0525,47.6
1.183,-0.003,-0.0075,0.042,0.0547,47.9
1.184,0.006,-0.0083,0.0427,0.057,48.0
1.185,0.0127,-0.0068,0.0405,0.0502,48.3
1.186,0.018,-0.0068,0.0397,0.0315,48.5
1.187,0.0165,-0.0068,0.0442,0.0082,48.5
1.188,0.0045,-0.0068,0.0502,-0.0083,48.6
1.189,-0.0015,-0.0053,0.0532,-0.027,49.0
1.19,0.0045,-0.003,0.0577,-0.066,49.3
1.191,0.0067,-0.0008,0.0592,-0.0691,49.4
1.192,0.0015,0.0015,0.06,-0.0233,49.5
1.193,0.0127,0.003,0.063,-0.0008,49.9
1.194,0.0232,0.0045,0.0637,0.0037,49.8
1.195,0.024,0.0045,0.0637,-0.0046,50.3
1.196,0.0255,0.003,0.06,-0.0181,50.4
1.197,0.0202,0.0,0.0585,-0.0143,50.6
1.198,0.018,-0.0038,0.0637,-0.0195,50.7
1.199,0.0172,-0.0053,0.0645,-0.0083,50.9
1.2,0.0157,-0.0068,0.0555,0.012,51.2
1.201,0.0195,-0.0068,0.036,0.0195,51.1
1.202,0.0315,-0.0053,0.018,0.027,51.5
1.203,0.0277,-0.003,0.0105,0.0352,51.5
1.204,0.0105,-0.0008,0.0135,0.039,51.7
1.205,0.0052,0.0015,0.0135,0.0315,51.9
1.206,0.0097,0.0022,0.0097,0.0307,52.2
1.207,0.0127,0.0015,0.0075,0.024,52.5
1.208,0.0112,0.0015,0.0045,0.0015,52.3
1.209,0.0082,0.0007,-0.0053,-0.0188,52.6
1.21,0.0,0.003,-0.0128,-0.0518,52.5
1.211,-0.0075,0.0045,-0.0173,-0.0721,52.9
1.212,-0.012,0.0052,-0.0203,-0.0788,52.8
1.213,-0.012,0.0052,-0.0195,-0.1065,53.1
1.214,-0.0083,0.0052,-0.0188,-0.1508,53.2
1.215,-0.0053,0.0045,-0.0195,-0.1726,53.4
1.216,-0.0105,0.0045,-0.0181,-0.135,53.4
1.217,-0.0098,0.0022,-0.0181,-0.114,53.5
1.218,-0.003,0.0007,-0.0158,-0.114,53.7
1.219,0.003,0.0,-0.0165,-0.0615,53.7
1.22,-0.0008,0.0015,-0.0195,-0.0203,54.0
1.221,-0.0128,0.0045,-0.0173,-0.0046,54.0
1.222,-0.0218,0.0045,-0.0173,0.021,54.4
1.223,-0.027,0.0052,-0.021,0.0555,54.4
1.224,-0.0218,0.006,-0.0195,0.0765,54.3
1.225,-0.0128,0.0037,-0.0181,0.084,54.6
1.226,0.0045,0.0022,-0.0165,0.093,54.4
1.227,0.0127,0.0015,-0.0181,0.0765,54.9
1.228,0.006,0.0007,-0.0158,0.042,54.6
1.229,0.0037,0.0,-0.0181,-0.0068,54.9
1.23,0.0007,-0.0015,-0.021,-0.048,55.0
1.231,0.006,-0.003,-0.0195,-0.0608,55.1
1.232,0.0202,-0.0038,-0.0158,-0.0593,55.3
1.233,0.0187,-0.0046,-0.0143,-0.0518,55.2
1.234,0.0232,-0.003,-0.012,-0.0473,55.4
1.235,0.018,-0.0015,-0.0091,-0.0458,55.3
1.236,0.0045,-0.0046,-0.0068,-0.0608,55.4
1.237,-0.0008,-0.0053,-0.0053,-0.0803,55.6
1.238,-0.0263,-0.0023,-0.006,-0.0983,55.7
1.239,-0.0518,-0.0046,-0.0091,-0.108,55.9
1.24,-0.0848,-0.003,-0.0105,-0.1095,55.9
1.241,-0.1006,-0.0038,-0.003,-0.1178,56.2
1.242,-0.0788,-0.003,0.0067,-0.1133,56.2
1.243,-0.054,0.0007,0.009,-0.0975,56.5
1.244,-0.0398,0.0015,0.0022,-0.0706,56.4
1.245,-0.0285,0.003,-0.0158,-0.0405,56.5
1.246,-0.0173,0.0037,-0.0436,-0.0181,56.7
1.247,0.0045,0.0037,-0.0691,0.0045,56.6
1.248,0.0397,0.003,-0.0856,0.0232,56.9
1.249,0.0712,0.0015,-0.0953,0.042,56.7
1.25,0.0937,-0.0023,-0.093,0.0502,57.2
1.251,0.1042,-0.0046,-0.0773,0.0607,57.1
1.252,0.1042,-0.0053,-0.0383,0.0727,57.3
1.253,0.1005,-0.0053,0.0457,0.0832,57.3
1.254,0.1005,-0.006,0.195,0.0877,57.4
1.255,0.0952,-0.0068,0.3622,0.0885,57.4
1.256,0.09,-0.0053,0.4845,0.0877,57.4
1.257,0.0945,-0.0068,0.5392,0.0862,57.6
1.258,0.084,-0.0046,0.516,0.0855,57.6
1.259,0.0652,-0.0046,0.4545,0.0862,57.8
1.26,0.0517,-0.0046,0.3525,0.09,57.6
1.261,0.0367,-0.0015,0.2272,0.0922,57.7
1.262,0.0195,0.0007,0.12,0.0952,57.6
1.263,0.0015,0.0015,0.018,0.0975,57.8
1.264,-0.0181,0.003,-0.057,0.0945,57.7
1.265,-0.0293,0.0037,-0.1155,0.0922,57.6
1.266,-0.0083,0.003,-0.1665,0.0877,57.9
1.267,0.0405,0.0052,-0.2026,0.0832,57.6
1.268,0.0892,0.006,-0.2265,0.0772,57.7
1.269,0.1155,0.0067,-0.2393,0.0712,57.7
1.27,0.123,0.0052,-0.246,0.063,57.6
1.271,0.1312,0.0045,-0.252,0.0562,57.9
1.272,0.126,0.0052,-0.2618,0.0532,57.5
1.273,0.0975,0.0045,-0.27,0.048,57.8
1.274,0.0607,0.0037,-0.2685,0.045,57.5
1.275,0.0277,0.0037,-0.249,0.042,57.7
1.276,0.0052,0.003,-0.2145,0.039,57.7
1.277,-0.0195,0.003,-0.1778,0.0367,57.8
1.278,-0.0398,0.0015,-0.1403,0.0292,57.6
1.279,-0.0458,0.003,-0.1035,0.0255,57.6
1.28,-0.0511,0.003,-0.0735,0.0202,57.8
1.281,-0.054,0.003,-0.0503,0.0165,57.6
1.282,-0.0443,0.003,-0.0383,0.0142,57.6
1.283,-0.0368,0.0015,-0.0368,0.0142,57.6
1.284,-0.0315,0.0007,-0.0458,0.0157,57.6
1.285,-0.012,-0.0015,-0.0675,0.018,57.6
1.286,0.0157,-0.003,-0.099,0.0165,57.7
1.287,0.0472,-0.0038,-0.1305,0.0112,57.7
1.288,0.0712,-0.0038,-0.1635,0.0052,57.7
1.289,0.0825,-0.003,-0.189,0.0,57.8
1.29,0.0997,-0.003,-0.1935,-0.003,57.6
1.291,0.105,-0.0046,-0.177,-0.0046,57.7
1.292,0.0915,-0.0015,-0.1411,-0.0015,57.6
1.293,0.0607,0.0007,-0.0975,-0.0015,57.8
1.294,0.0232,0.0007,-0.0533,-0.003,57.8
1.295,0.0135,0.0007,-0.012,-0.0046,57.7
1.296,0.018,0.0007,0.0247,-0.006,58.0
1.297,0.0045,0.0,0.0457,-0.0008,57.9
1.298,-0.0143,-0.0015,0.0532,0.0007,58.1
1.299,-0.0218,-0.0015,0.057,-0.0113,58.0
1.3,-0.024,-0.003,0.0555,-0.033,58.0
1.301,-0.033,-0.003,0.0562,-0.033,58.0
1.302,-0.0495,-0.0046,0.0502,-0.0293,57.9
1.303,-0.0555,-0.0046,0.0465,-0.0615,57.9
1.304,-0.0443,-0.0015,0.0495,-0.0735,58.0
1.305,-0.0233,0.0007,0.0465,-0.0428,58.0
1.306,-0.0143,-0.0008,0.0517,-0.0256,57.8
1.307,-0.0361,-0.0046,0.0592,-0.0233,58.0
1.308,-0.063,-0.0083,0.066,-0.0083,57.9
1.309,-0.0706,-0.0105,0.0697,0.0022,57.8
1.31,-0.0743,-0.0181,0.0697,0.033,58.0
1.311,-0.1013,-0.0188,0.0705,0.0405,57.6
1.312,-0.1185,-0.0158,0.069,0.0127,57.9
1.313,-0.1448,-0.015,0.0667,0.006,57.6
1.314,-0.1538,-0.0128,0.063,-0.003,57.8
1.315,-0.1523,-0.0105,0.057,-0.0083,57.6
1.316,-0.1628,-0.0105,0.0502,-0.0113,57.5
1.317,-0.1305,-0.0113,0.0442,-0.0181,57.6
1.318,-0.1013,-0.0128,0.0412,-0.0233,57.3
1.319,-0.0878,-0.012,0.0382,-0.0368,57.2
1.32,-0.066,-0.0098,0.0367,-0.0458,57.3
1.321,-0.054,-0.0083,0.0367,-0.0555,57.3
1.322,-0.045,-0.0075,0.0442,-0.0623,57.2
1.323,-0.0353,-0.0046,0.048,-0.0668,57.1
1.324,-0.0346,-0.0023,0.0502,-0.066,57.0
1.325,-0.0195,-0.0008,0.0532,-0.0638,57.0
1.326,0.0007,0.0007,0.0517,-0.0645,56.9
1.327,-0.0015,0.0007,0.0487,-0.066,56.6
1.328,-0.0188,0.0015,0.0435,-0.0728,56.7
1.329,-0.048,0.0015,0.039,-0.0743,56.5
1.33,-0.0443,0.0015,0.0352,-0.0728,56.5
1.331,-0.0278,-0.0008,0.0307,-0.075,56.3
1.332,-0.042,0.0,0.0262,-0.0698,56.2
1.333,-0.0533,0.003,0.0202,-0.0608,56.1
1.334,-0.0698,0.003,0.018,-0.0548,56.1
1.335,-0.078,0.0,0.0165,-0.0473,56.0
1.336,-0.0915,0.0007,0.015,-0.0443,55.8
1.337,-0.0953,-0.0015,0.0082,-0.0405,55.7
1.338,-0.0818,-0.0038,-0.0023,-0.0308,55.7
1.339,-0.0533,-0.0015,-0.0083,-0.0203,55.4
1.34,-0.0143,-0.0015,-0.0105,-0.0113,55.3
1.341,0.0105,-0.0015,-0.0098,-0.0053,55.2
1.342,0.0532,0.0007,-0.0038,0.0,55.2
1.343,0.1057,0.0,0.0045,0.0045,54.9
1.344,0.141,-0.0015,0.0142,0.009,55.0
1.345,0.1432,-0.0023,0.024,0.0157,54.8
1.346,0.1395,0.0007,0.0307,0.0187,54.8
1.347,0.123,0.0037,0.0345,0.0225,54.6
1.348,0.084,0.006,0.0315,0.0247,54.5
1.349,0.0495,0.0082,0.0352,0.0255,54.4
1.35,0.0195,0.0105,0.039,0.0307,54.3
1.351,0.009,0.0157,0.0382,0.0345,54.0
1.352,0.0097,0.0165,0.039,0.0382,54.0
1.353,0.0142,0.018,0.0367,0.0442,53.9
1.354,0.0195,0.0195,0.033,0.0495,53.8
1.355,0.0045,0.0195,0.0307,0.0517,53.5
1.356,-0.0203,0.0202,0.0307,0.0465,53.6
1.357,-0.0465,0.0195,0.0292,0.0367,53.3
1.358,-0.0668,0.0195,0.0262,0.024,53.3
1.359,-0.0878,0.018,0.027,0.0157,53.1
1.36,-0.108,0.0157,0.0262,0.012,53.1
1.361,-0.153,0.0127,0.0225,0.0105,52.9
1.362,-0.2026,0.0112,0.0142,0.0105,52.6
1.363,-0.1995,0.0097,0.0045,0.0082,52.6
1.364,-0.1785,0.009,-0.0068,0.0075,52.4
1.365,-0.156,0.0097,-0.0195,0.0082,52.2
1.366,-0.1298,0.0112,-0.0285,0.0105,52.1
1.367,-0.1178,0.0105,-0.0308,0.0105,51.9
1.368,-0.1028,0.0097,-0.027,0.0067,51.7
1.369,-0.0856,0.0082,-0.021,0.0015,51.7
1.37,-0.0653,0.0067,-0.0165,0.0007,51.7
1.371,-0.0533,0.0045,-0.0173,0.0007,51.3
1.372,-0.048,0.0015,-0.0218,0.0,51.3
1.373,-0.033,-0.0015,-0.027,0.0007,51.0
1.374,-0.0008,-0.0068,-0.0338,-0.0008,51.1
1.375,0.0322,-0.0128,-0.0413,-0.0008,50.7
1.376,0.0532,-0.0165,-0.0458,0.0015,50.6
1.377,0.0787,-0.0203,-0.0465,-0.0008,50.3
1.378,0.12,-0.021,-0.0413,-0.0008,50.3
1.379,0.1545,-0.0203,-0.0346,0.0,50.2
1.38,0.1672,-0.021,-0.027,-0.003,49.9
1.381,0.171,-0.0203,-0.0218,-0.0053,49.7
1.382,0.1665,-0.0188,-0.0143,-0.0083,49.6
1.383,0.1597,-0.0181,-0.0098,-0.0091,49.4
1.384,0.147,-0.0158,-0.0105,-0.0098,49.4
1.385,0.129,-0.015,-0.0091,-0.0091,48.9
1.386,0.1012,-0.0158,-0.0098,0.0015,49.1
1.387,0.0885,-0.0143,-0.0075,0.0255,48.5
1.388,0.1005,-0.0143,-0.003,0.0262,48.8
1.389,0.099,-0.0105,-0.003,0.0105,48.5
1.39,0.087,-0.0075,-0.0015,0.012,48.4
1.391,0.0742,-0.0046,-0.003,0.0052,48.0
1.392,0.075,-0.003,-0.0083,0.0052,47.9
1.393,0.0825,-0.0015,-0.0128,0.0112,47.7
1.394,0.0817,0.0007,-0.0128,0.0022,47.6
1.395,0.0607,-0.003,-0.0158,-0.0038,47.7
1.396,0.0442,-0.0038,-0.0158,0.0007,47.2
1.397,0.0577,-0.0038,-0.0143,0.0052,47.1
1.398,0.0765,-0.0023,-0.0105,-0.0038,46.8
1.399,0.0855,-0.0046,-0.0083,-0.0015,46.5
1.4,0.0682,-0.0083,-0.0083,0.0015,46.6
1.401,0.0382,-0.0098,-0.0046,0.0,46.2
1.402,0.03,-0.0113,0.003,0.0015,46.3
1.403,0.0195,-0.0091,0.0075,-0.003,45.7
1.404,-0.0015,-0.0091,0.0082,-0.003,45.9
1.405,0.0015,-0.0075,0.0082,-0.0053,45.4
1.406,0.0022,-0.0068,0.009,-0.0068,45.4
1.407,-0.003,-0.0023,0.0105,-0.0091,45.0
1.408,-0.0008,0.006,0.0112,-0.0195,45.0
1.409,0.0022,0.0112,0.0142,-0.0248,44.8
1.41,0.0127,0.009,0.0135,-0.0315,44.6
1.411,0.018,-0.0015,0.0135,-0.033,44.5
1.412,0.0255,-0.0046,0.0142,-0.0218,44.4
1.413,0.0315,-0.0068,0.0127,0.0097,43.9
1.414,0.0367,-0.0128,0.0127,0.0472,44.0
1.415,0.0405,-0.0008,0.0127,0.0742,43.6
1.416,0.0457,0.0142,0.0142,0.081,43.5
1.417,0.0472,0.0187,0.0112,0.0555,43.1
1.418,0.0345,0.0157,0.0067,0.0352,43.1
1.419,0.0277,0.0127,0.006,0.018,42.8
1.42,0.018,0.0052,0.0052,0.0187,42.8
1.421,0.0037,-0.0046,0.003,0.0345,42.4
1.422,-0.0053,-0.0008,0.0022,-0.033,42.3
1.423,-0.0135,0.0045,0.0022,-0.0938,42.1
1.424,-0.0143,0.0015,0.003,-0.0218,41.8
1.425,-0.0225,-0.003,0.003,0.0082,41.8
1.426,-0.0308,-0.0015,0.0015,-0.1155,41.4
1.427,-0.033,0.0,0.0015,-0.1815,41.4
1.428,-0.033,-0.0015,0.0052,-0.0975,41.0
1.429,-0.0218,0.0082,0.0045,0.0307,41.0
1.43,-0.0098,0.0412,0.009,0.1275,40.7
1.431,0.0007,0.051,0.0142,0.0802,40.4
1.432,0.006,0.0135,0.0165,-0.0068,40.3
1.433,0.0112,0.0007,0.0172,0.0202,40.0
1.434,0.0247,0.003,0.0127,0.0007,40.1
1.435,0.0375,-0.0038,0.0112,0.0015,39.5
1.436,0.0525,0.0,0.0112,0.0082,39.6
1.437,0.0705,-0.0053,0.0067,-0.0173,39.2
1.438,0.084,0.0007,0.006,0.0045,39.1
1.439,0.0787,0.0037,0.006,-0.0038,38.8
1.44,0.0742,0.03,0.0067,-0.003,38.6
1.441,0.0645,0.0697,0.0075,-0.0225,38.5
1.442,0.0345,0.0345,0.0045,-0.0181,38.1
1.443,0.0045,-0.0046,0.0052,-0.0091,38.2
1.444,-0.0263,-0.0128,0.0037,-0.042,37.8
1.445,-0.0495,-0.0256,0.0037,-0.0165,37.6
1.446,-0.063,-0.0323,0.0052,0.003,37.4
1.447,-0.0758,-0.0398,0.0045,0.003,37.2
1.448,-0.0825,-0.033,0.0045,0.009,37.1
1.449,-0.0975,-0.0098,-0.0008,0.003,36.8
1.45,-0.1065,0.0045,-0.0046,0.0067,36.5
1.451,-0.1155,-0.003,-0.003,0.0157,36.3
1.452,-0.1125,-0.0068,-0.0046,0.0277,36.3
1.453,-0.0953,-0.0083,-0.003,0.0405,35.9
1.454,-0.0863,-0.0046,-0.0023,0.0675,35.8
1.455,-0.075,0.0022,-0.0023,0.09,35.3
1.456,-0.0623,0.0045,-0.003,0.0315,35.2
1.457,-0.0525,0.0105,-0.0015,-0.1088,35.0
1.458,-0.0413,-0.0053,0.0015,-0.1163,34.6
1.459,-0.0346,-0.024,0.0015,0.0052,34.5
1.46,-0.024,-0.0135,0.0,-0.0706,34.2
1.461,-0.0165,0.003,-0.0015,-0.0668,33.9
1.462,-0.012,0.009,0.0007,0.0705,33.8
1.463,-0.0053,0.0082,0.0015,-0.1733,33.5
1.464,0.0037,-0.0046,0.0007,-0.2821,33.3
1.465,0.0112,-0.0308,0.0007,-0.0143,33.1
1.466,0.0172,-0.042,0.0007,0.024,33.0
1.467,0.0217,-0.0361,0.0015,0.1837,32.6
1.468,0.0232,-0.0233,0.0,0.2445,32.5
1.469,0.027,0.033,-0.0015,-0.1088,32.0
1.47,0.0315,0.0555,0.0,-0.108,31.9
1.471,0.0375,0.006,0.0015,0.078,31.9
1.472,0.0442,-0.0158,0.003,0.2085,31.3
1.473,0.0525,-0.0091,0.0,0.1402,31.3
1.474,0.057,0.003,-0.0068,-0.0091,30.8
1.475,0.0555,0.0105,-0.0068,0.066,30.9
1.476,0.051,-0.0008,-0.0046,0.0045,30.3
1.477,0.0457,-0.0143,-0.0091,0.0255,30.1
1.478,0.0375,-0.0218,-0.0105,0.0292,30.1
1.479,0.027,-0.0091,-0.0113,-0.0248,29.7
1.48,0.018,-0.0023,-0.0143,0.0097,29.6
1.481,0.0165,-0.0053,-0.0165,-0.0158,29.2
1.482,0.0202,0.0022,-0.0195,0.045,29.1
1.483,0.0202,0.0045,-0.0218,0.018,28.8
1.484,0.0202,0.0067,-0.024,-0.0525,28.5
1.485,0.0247,0.0052,-0.0248,-0.0195,28.3
1.486,0.0262,0.0045,-0.0233,0.0052,28.1
1.487,0.0262,0.0,-0.0203,0.006,27.9
1.488,0.0217,-0.0068,-0.0165,0.0105,27.5
1.489,0.018,-0.0053,-0.015,-0.0008,27.6
1.49,0.0127,-0.0015,-0.0105,-0.0158,27.0
1.491,0.0007,0.0052,-0.0068,-0.027,27.0
1.492,-0.0143,0.009,-0.006,-0.0938,26.6
1.493,-0.0233,0.0082,-0.003,-0.1163,26.5
1.494,-0.0278,-0.006,0.0,-0.0203,26.4
1.495,-0.0315,-0.0113,0.0015,0.063,26.2
1.496,-0.0293,-0.0068,0.0022,0.0742,26.1
1.497,-0.0308,-0.0053,0.0015,0.0345,25.7
1.498,-0.0308,-0.0053,0.0045,0.0067,25.7
1.499,-0.03,-0.012,0.0052,0.0112,25.4
1.5,-0.027,-0.0128,0.003,-0.0608,25.1
1.501,-0.0173,-0.0046,-0.0008,-0.1148,24.9
1.502,-0.012,0.0157,0.0007,-0.081,24.9
1.503,-0.0083,0.048,0.0007,-0.0578,24.7
1.504,-0.0053,0.078,0.0,-0.0721,24.3
1.505,0.0015,0.0877,0.0022,-0.0638,24.3
1.506,0.0045,0.0675,0.0,0.0292,23.9
1.507,0.012,0.018,0.0015,0.1095,24.0
1.508,0.0202,-0.0233,0.0022,0.0727,23.6
1.509,0.0165,-0.0353,0.0022,0.0202,23.5
1.51,0.012,-0.0308,0.0052,0.0322,23.3
1.511,0.0015,-0.0128,-0.0008,0.0135,23.0
1.512,-0.012,-0.012,-0.0053,0.0045,22.9
1.513,-0.021,-0.0256,-0.0046,-0.0668,22.5
1.514,-0.024,-0.0368,-0.0023,-0.1365,22.4
1.515,-0.0293,-0.0225,0.0007,-0.0436,22.1
1.516,-0.0361,-0.0023,0.0037,-0.0195,22.0
1.517,-0.0428,-0.0046,0.0097,-0.0015,21.8
1.518,-0.039,0.0067,0.015,0.042,21.5
1.519,-0.0361,0.0247,0.0157,0.0292,21.5
1.52,-0.0346,0.0367,0.0142,0.0465,21.0
1.521,-0.0315,0.0232,0.0052,0.0037,21.0
1.522,-0.024,-0.0075,-0.0113,-0.0465,20.6
1.523,-0.0083,-0.0105,-0.0248,-0.0953,20.4
1.524,0.0127,-0.0075,-0.0368,-0.0743,20.2
1.525,0.0195,-0.0181,-0.048,0.0262,19.9
1.526,0.0075,-0.0015,-0.0511,0.0052,19.6
1.527,-0.0105,0.009,-0.0465,-0.0233,19.3
1.528,-0.0173,-0.0098,-0.0428,-0.0158,19.1
1.529,-0.0128,-0.0105,-0.0383,0.0255,18.9
1.53,-0.0143,0.0232,-0.0293,0.0637,18.8
1.531,-0.0195,0.0757,-0.0285,0.003,18.4
1.532,-0.027,0.0862,-0.0256,0.0157,18.1
1.533,-0.0315,0.0825,-0.0195,0.0352,18.1
1.534,-0.033,0.0862,-0.0165,0.039,17.6
1.535,-0.0353,0.0232,-0.0158,0.063,17.8
1.536,-0.0308,-0.0413,-0.0128,0.0427,17.3
1.537,-0.0315,-0.0593,-0.012,0.036,17.5
1.538,-0.0323,-0.0668,-0.0128,-0.0091,17.0
1.539,-0.027,-0.0675,-0.012,-0.0593,17.1
1.54,-0.0105,-0.0555,-0.0053,-0.0181,16.7
1.541,0.0007,-0.0338,0.0,0.057,16.6
1.542,0.0067,-0.0323,0.0015,0.063,16.5
1.543,0.0187,-0.0555,0.003,0.078,16.4
1.544,0.024,-0.0713,0.003,0.0765,16.2
1.545,0.0232,-0.0638,0.006,-0.0878,16.1
1.546,0.0232,-0.039,0.009,-0.1928,15.9
1.547,0.0127,0.015,0.009,-0.0645,15.9
1.548,-0.0008,0.0502,0.0052,-0.0046,15.7
1.549,-0.0046,0.0472,0.0015,-0.012,15.6
1.55,0.0007,0.045,0.0082,0.0472,15.5
1.551,0.0052,0.021,0.012,0.0255,15.5
1.552,0.0067,-0.0008,0.012,0.0195,15.1
1.553,0.015,-0.0091,0.0112,0.0127,15.2
1.554,0.0172,-0.0278,0.012,0.0045,15.0
1.555,0.0127,-0.0398,0.0142,0.0345,14.8
1.556,0.0142,-0.027,0.018,0.0397,14.8
1.557,0.0187,-0.0015,0.0202,0.0712,14.6
1.558,0.0202,0.0,0.021,0.0727,14.4
1.559,0.0157,-0.0008,0.0232,0.039,14.4
1.56,0.0075,0.0157,0.0277,-0.0346,14.4
1.561,-0.0023,0.0195,0.0285,-0.1215,14.1
1.562,-0.0091,0.018,0.027,-0.0555,13.9
1.563,-0.0113,0.0195,0.0315,0.0787,14.0
1.564,-0.0098,0.0255,0.0367,0.045,13.7
1.565,-0.012,0.0442,0.0337,0.0202,13.8
1.566,-0.0068,0.063,0.0322,0.0517,13.5
1.567,-0.003,0.057,0.03,0.033,13.5
1.568,0.003,0.0255,0.0247,0.0187,13.0
1.569,0.0097,-0.0105,0.0217,-0.0256,13.2
1.57,0.012,-0.0473,0.0202,-0.0225,12.9
1.571,0.0067,-0.0803,0.0195,-0.0218,12.8
1.572,-0.0008,-0.0833,0.018,-0.0278,12.5
1.573,0.006,-0.078,0.0165,-0.0105,12.6
1.574,0.009,-0.0578,0.0157,-0.0075,12.4
1.575,0.0097,-0.0405,0.0135,0.0127,12.3
1.576,0.0142,-0.0458,0.009,0.012,12.1
1.577,0.0127,-0.039,-0.006,0.0232,11.9
1.578,0.009,-0.0465,-0.0218,0.024,11.6
1.579,-0.0038,-0.0458,-0.0278,-0.0023,11.4
1.58,-0.0181,-0.0436,-0.033,-0.0443,11.2
1.581,-0.03,-0.0405,-0.0495,-0.084,11.2
1.582,-0.03,-0.0458,-0.0706,-0.039,10.9
1.583,-0.0256,-0.0675,-0.09,-0.0008,10.8
1.584,-0.0256,-0.0713,-0.105,-0.0046,10.7
1.585,-0.0308,-0.0593,-0.1155,0.003,10.6
1.586,-0.0308,-0.0338,-0.1006,0.0105,10.6
1.587,-0.0195,-0.0068,-0.054,0.0285,10.4
1.588,-0.0068,0.0195,0.0165,-0.0181,10.2
1.589,-0.0015,0.0442,0.1035,-0.021,10.1
1.59,-0.003,0.0667,0.1627,0.0637,10.1
1.591,-0.0053,0.0682,0.1762,0.057,10.0
1.592,-0.0053,0.0345,0.174,0.0795,9.6
1.593,-0.0046,-0.0181,0.1402,0.147,9.7
1.594,0.0007,-0.0428,0.0975,0.1027,9.5
1.595,0.0045,-0.0443,0.0637,-0.0856,9.5
1.596,0.0045,-0.0638,0.0367,-0.3428,9.1
1.597,0.003,-0.039,0.0232,-0.2933,9.3
1.598,0.0007,0.0127,0.0135,-0.075,9.1
1.599,-0.0015,0.0615,0.0075,-0.0518,9.1
1.6,-0.0083,0.1117,0.0007,-0.0091,8.9
1.601,-0.0083,0.1282,-0.0046,-0.0195,8.7
1.602,-0.0091,0.1117,-0.0053,-0.0188,8.8
1.603,-0.003,0.0727,-0.003,0.066,8.6
1.604,0.009,0.0502,0.003,-0.0008,8.5
1.605,0.0232,0.0232,0.0112,-0.0563,8.5
1.606,0.0435,0.0292,0.018,0.102,8.5
1.607,0.063,0.0465,0.0202,0.1822,8.4
1.608,0.081,0.0495,0.0262,0.0607,8.2
1.609,0.0967,0.0855,0.0277,0.075,8.3
1.61,0.1147,0.0967,0.0277,0.048,8.1
1.611,0.1327,0.0787,0.027,0.0232,8.2
1.612,0.1417,0.063,0.0255,0.0142,7.8
1.613,0.1462,0.042,0.0165,-0.0915,8.1
1.614,0.1507,0.009,-0.0105,-0.0413,7.7
1.615,0.1537,-0.0368,-0.0353,-0.0158,7.8
1.616,0.1567,-0.063,-0.039,0.0592,7.6
1.617,0.1545,-0.0608,-0.0436,0.192,7.6
1.618,0.1455,-0.048,-0.039,0.1852,7.6
1.619,0.1417,-0.0105,-0.0256,0.1065,7.4
1.62,0.1342,-0.0008,-0.006,0.0322,7.5
1.621,0.1117,-0.048,0.0127,-0.0398,7.5
1.622,0.087,-0.0465,0.015,-0.1748,7.2
1.623,0.0645,-0.012,0.0082,-0.2618,7.2
1.624,0.0457,0.0255,-0.0046,-0.2041,7.0
1.625,0.03,0.0712,-0.0143,-0.075,7.3
1.626,0.0225,0.072,-0.0188,-0.0195,6.9
1.627,0.0202,0.0607,-0.0233,0.0255,7.2
1.628,0.0157,0.0397,-0.024,0.0345,6.7
1.629,0.0105,-0.0233,-0.024,-0.1441,6.9
1.63,-0.003,-0.0915,-0.021,-0.2483,6.9
1.631,-0.0128,-0.1043,-0.0158,-0.0578,7.0
1.632,-0.021,-0.0743,-0.0128,0.15,6.9
1.633,-0.0375,-0.039,-0.012,0.174,6.7
1.634,-0.0511,-0.003,-0.012,0.0727,6.7
1.635,-0.0578,0.0067,-0.0098,0.0345,6.6
1.636,-0.0593,0.0015,-0.003,0.1402,6.7
1.637,-0.063,-0.0233,-0.0008,0.1102,6.7
1.638,-0.0721,-0.0383,-0.0046,-0.066,6.6
1.639,-0.0856,-0.0263,-0.0053,-0.1193,6.6
1.64,-0.1013,-0.0105,-0.0083,-0.0346,6.3
1.641,-0.111,-0.021,-0.0165,0.0187,6.6
1.642,-0.1133,-0.0495,-0.0181,0.0472,6.6
1.643,-0.1118,-0.0278,-0.0181,0.093,6.5
1.644,-0.105,0.006,-0.0195,0.0855,6.4
1.645,-0.1013,0.0112,-0.0165,0.0667,6.4
1.646,-0.0968,0.0007,-0.015,0.0345,6.4
1.647,-0.0915,0.0037,-0.0143,0.0232,6.3
1.648,-0.0848,0.018,-0.0128,0.027,6.4
1.649,-0.0803,0.0142,-0.0128,-0.0578,6.3
1.65,-0.081,0.0157,-0.0165,-0.132,6.4
1.651,-0.0765,0.0142,-0.021,-0.1193,6.1
1.652,-0.0721,0.0097,-0.027,-0.156,6.3
1.653,-0.0638,0.009,-0.0308,-0.1373,6.3
1.654,-0.0518,0.0007,-0.0323,-0.0713,6.2
1.655,-0.042,-0.0053,-0.0323,-0.0053,6.3
1.656,-0.0353,-0.0038,-0.033,0.0457,6.2
1.657,-0.0256,-0.0038,-0.0315,0.0202,6.4
1.658,-0.0135,-0.0128,-0.0308,0.1957,6.0
1.659,-0.0053,-0.0143,-0.0308,0.348,6.2
1.66,-0.0008,-0.0113,-0.0278,0.2895,6.1
1.661,0.0022,-0.0015,-0.0308,0.0615,6.2
1.662,0.0022,0.0142,-0.0346,-0.1403,6.1
1.663,0.0022,0.027,-0.0315,-0.1125,5.9
1.664,-0.0023,0.0427,-0.0285,-0.114,6.2
1.665,-0.0091,0.0405,-0.0278,-0.0795,5.8
1.666,-0.0105,0.015,-0.0278,-0.0008,6.1
1.667,-0.0083,-0.0046,-0.0278,0.0427,5.8
1.668,-0.003,-0.0218,-0.0263,0.0457,5.9
1.669,-0.0008,-0.024,-0.0195,-0.039,6.0
1.67,0.0015,-0.012,-0.0165,-0.0923,5.8
1.671,0.0052,-0.0053,-0.0195,0.0142,5.8
1.672,0.0015,0.0045,-0.0233,0.0337,5.7
1.673,-0.0015,0.0232,-0.0203,-0.0113,5.8
1.674,-0.0015,0.0322,-0.0098,0.0967,5.7
1.675,-0.012,0.0262,-0.0008,-0.0046,5.8
1.676,-0.0218,0.021,0.0082,0.012,5.8
1.677,-0.0195,0.006,0.009,0.1612,5.7
1.678,-0.021,-0.0128,0.006,0.0727,5.8
1.679,-0.0158,-0.0068,0.0052,0.015,5.7
1.68,-0.0105,-0.003,0.0045,-0.1838,5.7
1.681,-0.0083,0.0105,0.0015,-0.27,5.5
1.682,-0.003,0.0285,-0.0008,-0.1298,5.6
1.683,-0.006,0.033,-0.0023,-0.1905,5.4
1.684,-0.0015,0.0495,-0.0083,-0.1365,5.5
1.685,0.0015,0.0307,-0.0368,0.0202,5.4
1.686,0.0015,-0.0248,-0.0533,0.0105,5.2
1.687,0.0015,-0.0555,-0.003,-0.0165,5.1
1.688,0.0015,-0.042,0.0157,-0.0053,4.9
1.689,0.0045,-0.0105,0.0007,0.012,4.9
1.69,0.0,0.0097,0.0007,-0.0008,4.6
1.691,-0.0083,0.0195,-0.0158,0.045,4.4
1.692,-0.0128,0.0217,-0.0091,0.0292,4.1
1.693,-0.021,0.0097,-0.0128,-0.0218,4.0
1.694,-0.0256,-0.0368,-0.0181,0.0127,3.8
1.695,-0.0263,-0.06,-0.012,0.018,3.5
1.696,-0.0233,-0.0346,-0.0105,0.0457,3.5
1.697,-0.0256,-0.012,-0.0075,0.0742,3.1
1.698,-0.0293,0.003,-0.0015,0.108,3.2
1.699,-0.0233,0.0135,0.0195,0.1087,2.8
1.7,-0.0098,0.0067,0.0405,0.0742,2.7
1.701,0.0075,-0.0083,0.0652,0.0367,2.5
1.702,0.0202,-0.0046,0.0825,-0.0008,2.3
1.703,0.033,0.0112,0.0982,-0.0181,2.1
1.704,0.0472,0.0165,0.1057,-0.1238,1.8
1.705,0.0615,0.0067,0.0967,-0.1223,1.9
1.706,0.0705,-0.0015,0.084,0.0075,1.8
1.707,0.0727,-0.0128,0.06,-0.0105,1.7
1.708,0.0675,-0.024,0.0262,-0.03,1.5
1.709,0.0592,-0.0315,-0.012,-0.0503,1.5
1.71,0.0487,-0.0405,-0.0346,-0.1073,1.4
1.711,0.045,-0.0225,-0.033,-0.0623,1.3
1.712,0.0457,-0.0038,-0.0218,0.0495,1.5
1.713,0.0502,-0.003,0.0217,0.1305,1.3
1.714,0.0592,0.0015,0.0885,0.1312,1.6
1.715,0.0615,0.003,0.141,0.1237,1.2
1.716,0.0532,0.0015,0.1672,-0.012,1.3
1.717,0.0435,-0.0023,0.165,-0.1088,1.3
1.718,0.0345,-0.0053,0.1432,0.0292,1.3
1.719,0.027,-0.003,0.1185,0.1117,1.2
1.72,0.0255,-0.0008,0.0982,0.0382,1.0
1.721,0.0217,0.0007,0.0705,0.0787,1.3
1.722,0.015,-0.0015,0.0532,0.1552,1.2
1.723,0.0067,-0.0053,0.0622,-0.1485,1.0
1.724,-0.0038,0.0015,0.0705,-0.192,1.2
1.725,-0.0181,0.0052,0.0712,0.0615,1.2
1.726,-0.024,-0.0046,0.0555,0.0367,1.3
1.727,-0.0203,-0.0046,0.0345,0.048,1.4
1.728,-0.024,-0.0098,0.0195,0.0255,1.5
1.729,-0.0181,-0.0165,0.0127,0.0015,1.4
1.73,-0.0068,-0.0113,0.0142,0.0157,1.7
1.731,0.003,0.0105,0.021,-0.0346,1.5
1.732,0.0075,0.0165,0.0442,-0.06,1.8
1.733,0.0022,-0.0023,0.0697,-0.0263,1.8
1.734,-0.012,-0.0068,0.0832,-0.0765,1.8
1.735,-0.0413,0.0097,0.09,-0.183,2.0
1.736,-0.0578,0.0255,0.0825,-0.045,2.1
1.737,-0.0765,0.0165,0.0615,0.1447,2.3
1.738,-0.084,-0.003,0.0262,0.1462,2.2
1.739,-0.0803,0.0105,-0.0158,-0.0308,2.4
1.74,-0.081,0.057,-0.0458,-0.0638,2.5
1.741,-0.0511,0.0817,-0.0721,-0.0413,2.7
1.742,-0.0458,0.0675,-0.0968,-0.1545,2.7
1.743,-0.0668,0.0187,-0.1133,-0.2048,2.5
1.744,-0.0825,-0.0473,-0.126,-0.1478,3.1
1.745,-0.1185,-0.1088,-0.1328,0.0285,3.0
1.746,-0.1433,-0.1298,-0.1388,0.0307,3.3
1.747,-0.15,-0.0818,-0.1433,0.0532,3.2
1.748,-0.15,-0.0436,-0.135,0.09,3.6
1.749,-0.1403,0.0,-0.12,0.0435,3.4
1.75,-0.1073,0.0172,-0.1103,0.0697,3.6
1.751,-0.066,0.0045,-0.1125,0.045,3.6
1.752,-0.039,0.0067,-0.135,0.0652,3.6
1.753,-0.0135,-0.0015,-0.162,-0.0091,3.8
1.754,0.0157,0.009,-0.195,0.003,3.7
1.755,0.0315,0.0075,-0.2205,0.042,3.9
1.756,0.0277,0.0082,-0.2295,0.0082,3.9
1.757,0.0217,0.0082,-0.2258,0.039,4.0
1.758,0.018,0.0037,-0.2011,0.0105,4.0
1.759,0.0195,0.0067,-0.1658,0.0285,3.7
1.76,0.0345,0.0052,-0.1133,0.0165,3.8
1.761,0.0442,0.009,-0.0443,0.0097,3.9
1.762,0.0285,0.0082,0.0195,0.0157,4.0
1.763,0.0232,0.0082,0.072,0.0015,3.6
1.764,0.0397,0.006,0.1005,0.0142,3.8
1.765,0.0772,0.0052,0.1162,0.003,3.7
1.766,0.117,0.0052,0.1192,0.0157,3.8
1.767,0.1335,0.0067,0.1117,0.0187,3.5
1.768,0.1485,0.0052,0.1035,0.036,3.5
1.769,0.1462,0.0022,0.0817,0.0375,3.7
1.77,0.15,0.0045,0.063,0.024,3.4
1.771,0.174,0.003,0.0457,0.0225,3.5
1.772,0.2062,0.0045,0.0315,-0.0046,3.4
1.773,0.2242,0.006,0.0262,-0.0511,3.6
1.774,0.2235,0.009,0.0262,-0.1088,3.3
1.775,0.2182,0.0127,0.033,-0.0735,3.4
1.776,0.2145,0.0127,0.036,-0.0256,3.4
1.777,0.2287,0.012,0.0382,-0.0308,3.2
1.778,0.2257,0.0082,0.0412,-0.0046,3.5
1.779,0.2122,0.003,0.0465,0.0075,3.2
1.78,0.1935,-0.0015,0.0502,0.0292,3.7
1.781,0.1695,-0.0091,0.0517,0.084,3.4
1.782,0.1515,-0.0181,0.0555,0.1297,3.4
1.783,0.1327,-0.0195,0.06,0.105,3.4
1.784,0.1162,-0.012,0.0607,0.0015,3.3
1.785,0.09,0.0022,0.0615,-0.06,3.3
1.786,0.0817,0.0135,0.0622,-0.078,3.1
1.787,0.063,0.0202,0.0615,-0.075,3.3
1.788,0.039,0.0247,0.0532,-0.0525,3.2
1.789,0.0517,0.0232,0.039,-0.0653,3.3
1.79,0.063,0.0165,0.0307,-0.0405,3.1
1.791,0.057,0.0112,0.0202,0.0345,3.3
1.792,0.0375,0.006,0.0067,0.03,3.2
1.793,0.0105,0.0045,-0.003,0.0217,3.0
1.794,-0.0105,0.003,-0.0181,0.0607,3.0
1.795,-0.0315,-0.0046,-0.0308,0.0547,3.0
1.796,-0.0428,-0.0135,-0.0398,-0.003,3.0
1.797,-0.0436,-0.0105,-0.0473,-0.0165,3.0
1.798,-0.0548,-0.0038,-0.054,0.0045,2.9
1.799,-0.0706,0.0,-0.0555,-0.0608,2.8
1.8,-0.0825,0.003,-0.0533,-0.0706,2.7
1.801,-0.0893,0.003,-0.0518,-0.0323,2.9
1.802,-0.1006,-0.0023,-0.0458,-0.0218,2.6
1.803,-0.1058,-0.0068,-0.0375,-0.042,2.6
1.804,-0.1118,-0.0091,-0.0256,-0.0195,2.6
1.805,-0.126,-0.0128,-0.0173,0.1207,2.6
1.806,-0.1426,-0.0105,-0.0083,0.0157,2.5
1.807,-0.1696,-0.0015,0.0045,-0.0803,2.5
1.808,-0.1958,-0.0015,0.0105,-0.0203,2.6
1.809,-0.219,-0.0008,0.018,0.0142,2.4
1.81,-0.237,-0.0008,0.0255,0.0555,2.6
1.811,-0.2483,-0.006,0.0277,0.0052,2.2
1.812,-0.249,-0.0083,0.0352,0.0082,2.5
1.813,-0.2423,-0.0015,0.0465,-0.09,2.2
1.814,-0.2393,0.0082,0.0547,-0.126,2.3
1.815,-0.2438,0.0075,0.0555,0.0352,2.2
1.816,-0.2535,0.003,0.0577,0.009,2.0
1.817,-0.2565,-0.0015,0.0622,-0.0023,2.2
1.818,-0.2393,-0.006,0.0577,0.0382,1.8
1.819,-0.2175,-0.006,0.0442,0.0457,2.2
1.82,-0.1815,-0.0083,0.0307,0.078,1.8
1.821,-0.1463,-0.0038,0.0157,0.0082,2.1
1.822,-0.1065,-0.0023,0.0007,-0.0038,1.7
1.823,-0.0623,-0.0068,-0.015,-0.0046,1.8
1.824,-0.027,-0.012,-0.027,-0.0225,1.7
1.825,0.009,-0.0181,-0.0361,-0.0083,1.8
1.826,0.018,-0.0128,-0.0428,-0.0383,1.8
1.827,0.0405,-0.0098,-0.0443,-0.0046,1.6
1.828,0.0457,-0.0158,-0.0473,0.0247,1.5
1.829,0.006,-0.012,-0.0533,-0.0233,1.5
1.83,0.0255,0.0015,-0.0615,-0.048,1.5
1.831,0.06,0.012,-0.0675,-0.012,1.4
1.832,0.0802,0.0142,-0.0683,-0.0053,1.3
1.833,0.1275,0.0075,-0.0713,0.015,1.4
1.834,0.165,-0.003,-0.0765,0.0495,1.3
1.835,0.198,-0.015,-0.0953,0.0442,1.3
1.836,0.2212,-0.0203,-0.1155,0.108,1.2
1.837,0.2242,-0.0181,-0.0878,0.105,1.4
1.838,0.186,-0.0113,-0.0353,-0.0285,1.2
1.839,0.1387,0.0015,-0.0158,-0.0675,1.3
1.84,0.1155,0.0007,-0.0308,-0.0323,1.3
1.841,0.099,-0.0008,-0.0713,-0.039,1.3
1.842,0.0765,0.0,-0.0968,-0.0285,1.3
1.843,0.0637,-0.0008,-0.096,-0.0256,1.2
1.844,0.0862,0.0007,-0.084,-0.0308,1.4
1.845,0.09,-0.0008,-0.0645,-0.0256,1.3
1.846,0.078,0.0007,-0.0555,-0.0315,1.2
1.847,0.0592,0.0015,-0.0495,-0.0218,1.3
1.848,0.039,0.003,-0.0405,-0.0158,1.3
1.849,0.045,0.0045,-0.03,-0.0008,1.3
1.85,0.0592,0.0067,-0.0225,0.0082,1.3
1.851,0.0465,0.006,-0.0188,0.0007,1.5
1.852,0.0397,0.0007,-0.015,0.0022,1.3
1.853,0.0547,0.0,-0.0091,-0.0008,1.5
1.854,0.0352,-0.0015,0.0,-0.0008,1.3
1.855,0.0465,0.0,0.0105,0.0037,1.6
1.856,0.0772,-0.0008,0.0195,0.0195,1.3
1.857,0.0675,-0.0015,0.0187,0.033,1.6
1.858,0.0585,0.0015,0.0187,0.0285,1.4
1.859,0.0637,0.0,0.0165,0.0105,1.5
1.86,0.093,-0.0015,0.0142,-0.0143,1.5
1.861,0.087,-0.0038,0.0187,-0.0405,1.5
1.862,0.0442,-0.006,0.0285,-0.0825,1.5
1.863,-0.0038,-0.0091,0.0405,-0.0698,1.5
1.864,-0.0503,-0.0091,0.057,0.0697,1.5
1.865,-0.0405,-0.0068,0.0802,0.1312,1.5
1.866,-0.0075,-0.0008,0.099,0.024,1.4
1.867,0.0352,0.0097,0.1132,0.0165,1.6
1.868,0.066,0.0165,0.1237,0.0952,1.4
1.869,0.057,0.0127,0.126,0.0,1.5
1.87,0.024,0.0007,0.1335,-0.1845,1.3
1.871,-0.0083,-0.003,0.135,-0.1253,1.6
1.872,-0.0128,0.0015,0.1372,0.0532,1.5
1.873,-0.0233,0.0045,0.1447,0.06,1.6
1.874,-0.042,0.0105,0.1462,0.0157,1.5
1.875,-0.057,0.009,0.1402,0.0142,1.5
1.876,-0.057,-0.0008,0.1372,0.0472,1.5
1.877,-0.0608,-0.006,0.1372,0.0225,1.4
1.878,-0.084,-0.003,0.1297,-0.0083,1.3
1.879,-0.1125,0.0037,0.12,-0.042,1.4
1.88,-0.123,0.0045,0.1072,-0.105,1.4
1.881,-0.1125,0.003,0.0945,-0.0503,1.3
1.882,-0.1065,0.0007,0.0817,-0.0128,1.5
1.883,-0.0878,-0.0053,0.0675,0.0142,1.4
1.884,-0.0593,-0.0135,0.06,0.138,1.4
1.885,-0.0398,-0.0181,0.0555,0.1447,1.5
1.886,-0.039,-0.015,0.0502,0.1012,1.4
1.887,-0.054,-0.0158,0.042,0.0952,1.5
1.888,-0.0555,-0.012,0.0337,0.0705,1.4
1.889,-0.0458,-0.0113,0.024,0.111,1.6
1.89,-0.033,-0.0143,0.018,0.0412,1.4
1.891,-0.0346,-0.0053,0.009,-0.1523,1.4
1.892,-0.042,0.003,0.0007,-0.3915,1.3
1.893,-0.039,0.0172,-0.0015,-0.4125,1.3
1.894,-0.0353,0.0232,-0.0015,-0.0915,1.5
1.895,-0.027,0.0135,0.0022,-0.006,1.4
1.896,0.0022,0.0105,0.0067,-0.0428,1.3
1.897,0.0517,0.012,0.009,0.0405,1.5
1.898,0.0855,0.0045,0.012,0.0367,1.5
1.899,0.0795,0.0022,0.0135,0.0465,1.7
1.9,0.0592,0.003,0.0202,0.0555,1.4
1.901,0.0615,-0.0008,0.0255,0.0375,1.6
1.902,0.1155,0.0015,0.0285,-0.003,1.4
1.903,0.1635,0.0022,0.0307,-0.0353,1.5
1.904,0.18,0.0007,0.0292,-0.021,1.4
1.905,0.1837,-0.0023,0.0225,-0.0083,1.5
1.906,0.1635,-0.0053,0.0142,0.0487,1.6
1.907,0.1312,-0.0068,0.0052,0.1207,1.6
1.908,0.093,-0.0128,-0.0068,0.174,1.5
1.909,0.0427,-0.0165,-0.0165,0.1192,1.6
1.91,0.0157,-0.0083,-0.0256,0.024,1.5
1.911,0.0,-0.0038,-0.0368,-0.0308,1.6
1.912,-0.0195,0.0045,-0.0511,-0.1448,1.5
1.913,-0.0353,0.009,-0.066,-0.099,1.5
1.914,-0.0458,0.0052,-0.0795,0.072,1.7
1.915,-0.045,0.0037,-0.0938,0.0945,1.8
1.916,-0.048,-0.0038,-0.1088,0.069,1.6
1.917,-0.039,-0.0068,-0.1253,0.0592,1.8
1.918,-0.0368,-0.0105,-0.1358,0.0487,1.5
1.919,-0.0428,-0.0068,-0.1411,0.0337,1.7
1.92,-0.0443,-0.0053,-0.1478,0.0142,1.5
1.921,-0.042,-0.006,-0.1485,0.027,1.7
1.922,-0.0293,-0.0008,-0.1485,-0.0165,1.6
1.923,-0.0233,0.0052,-0.1485,-0.0668,1.8
1.924,-0.0225,0.012,-0.15,-0.0593,1.6
1.925,-0.0233,0.0135,-0.1538,-0.0848,1.6
1.926,-0.027,0.0165,-0.15,-0.0645,1.7
1.927,-0.042,0.0165,-0.1426,-0.0308,1.7
1.928,-0.063,-0.003,-0.1411,-0.0436,1.7
1.929,-0.0691,-0.0218,-0.1403,-0.0818,1.7
1.93,-0.066,-0.0158,-0.1365,-0.0361,1.6
1.931,-0.0593,-0.0135,-0.129,0.051,1.7
1.932,-0.0503,-0.012,-0.1215,0.0015,1.7
1.933,-0.048,-0.0075,-0.117,0.021,1.8
1.934,-0.0315,-0.0015,-0.1065,0.0855,1.8
1.935,-0.012,0.0127,-0.0915,0.0532,1.7
1.936,-0.003,0.015,-0.0758,-0.0495,1.5
1.937,-0.0053,0.015,-0.0578,-0.0465,1.8
1.938,-0.0128,0.0127,-0.042,0.0352,1.7
1.939,-0.0233,0.009,-0.0248,0.0067,1.7
1.94,-0.0323,0.0052,-0.0053,-0.0105,1.8
1.941,-0.0533,0.003,0.0165,0.033,1.8
1.942,-0.0975,-0.0008,0.039,0.0787,1.7
1.943,-0.0893,-0.012,0.054,0.0247,1.7
1.944,-0.0338,-0.0098,0.0675,0.0067,1.7
1.945,-0.0098,-0.012,0.0787,0.0427,1.7
1.946,-0.0015,-0.0105,0.0877,0.024,1.7
1.947,-0.0203,-0.0053,0.0915,0.018,1.7
1.948,-0.0465,-0.0053,0.09,-0.003,1.7
1.949,-0.0488,0.0,0.0885,-0.0008,1.9
1.95,-0.0495,0.0015,0.0855,0.018,1.7
1.951,-0.0465,0.003,0.0825,0.036,1.9
1.952,-0.0398,0.0052,0.0817,0.0555,1.6
1.953,-0.0323,0.0082,0.0727,0.03,1.9
1.954,-0.0315,0.0105,0.0615,0.0165,1.8
1.955,-0.033,0.0112,0.051,0.0067,1.8
1.956,-0.0285,0.0105,0.0427,-0.0195,1.9
1.957,-0.027,0.0082,0.0382,-0.0308,1.8
1.958,-0.0203,0.009,0.0277,-0.0218,2.0
1.959,-0.0158,0.009,0.015,-0.012,1.9
1.96,-0.0113,0.0075,0.0067,-0.0128,1.9
1.961,-0.0046,0.0082,-0.0015,-0.0038,1.9
1.962,0.006,0.0105,-0.0105,0.0105,1.9
1.963,0.0195,0.0045,-0.0181,0.0157,1.9
1.964,0.0315,-0.0038,-0.0256,-0.0128,2.1
1.965,0.039,-0.0053,-0.03,-0.0593,2.1
1.966,0.0412,-0.0008,-0.0346,-0.057,1.8
1.967,0.0345,-0.0008,-0.0346,-0.0653,2.3
1.968,0.0277,-0.0075,-0.033,-0.093,1.9
1.969,0.0217,-0.0143,-0.0293,0.0367,2.3
1.97,0.0172,-0.0083,-0.0256,0.1042,2.1
1.971,0.0195,0.0037,-0.0233,-0.0105,2.2
1.972,0.0232,0.003,-0.015,-0.0825,2.1
1.973,0.03,0.0135,-0.0068,-0.0443,2.2
1.974,0.0307,0.0277,-0.006,0.075,2.1
1.975,0.0307,0.0075,-0.0098,-0.0691,2.1
1.976,0.0307,0.003,-0.0098,-0.135,2.2
1.977,0.0292,-0.0015,-0.0091,-0.012,2.1
1.978,0.0352,-0.012,-0.006,-0.0105,2.4
1.979,0.0375,-0.0105,-0.0083,0.0847,2.1
1.98,0.0345,-0.0128,-0.0068,0.0495,2.4
1.981,0.0307,-0.006,-0.0068,0.0277,2.4
1.982,0.027,0.0,-0.0083,-0.0046,2.2
1.983,0.0277,0.012,-0.0053,-0.126,2.4
1.984,0.0322,0.0247,0.0015,-0.0346,2.3
1.985,0.0405,0.0135,0.009,0.093,2.6
1.986,0.0435,-0.0053,0.0082,0.1365,2.3
1.987,0.0457,-0.0083,0.0037,0.0165,2.4
1.988,0.0465,-0.0098,0.0022,-0.084,2.4
1.989,0.0427,-0.0195,0.0007,-0.0983,2.5
1.99,0.0397,-0.0233,0.0007,-0.1013,2.6
1.991,0.0345,-0.0135,0.009,-0.1163,2.5
1.992,0.033,-0.012,0.0195,-0.1313,2.5
1.993,0.0382,-0.03,0.0225,0.0652,2.6
1.994,0.0465,-0.0188,0.0172,0.1372,2.6
1.995,0.0555,0.0052,0.0217,0.0292,2.5
1.996,0.0607,0.009,0.0225,0.018,2.6
1.997,0.0562,0.009,0.0157,0.0382,2.6
1.998,0.048,0.0045,0.0127,0.018,2.5
1.999,0.0382,0.003,0.0105,-0.0465,2.6
2.0,0.0255,0.0067,0.0135,0.003,2.5
2.001,0.0112,-0.0053,0.018,0.024,2.8
2.002,-0.0008,-0.0113,0.0187,-0.0405,2.5
2.003,-0.0098,-0.0105,0.0187,0.0352,2.7
2.004,-0.0203,-0.0181,0.0202,0.0502,2.6
2.005,-0.0278,-0.0195,0.0195,-0.0143,2.6
2.006,-0.0346,-0.0143,0.015,-0.0105,2.6
2.007,-0.039,-0.0083,0.015,-0.033,2.6
2.008,-0.0413,-0.0023,0.015,-0.0443,2.9
2.009,-0.0436,0.0015,0.015,-0.0525,2.6
2.01,-0.0443,0.0,0.0135,-0.0653,2.7
2.011,-0.0443,-0.0143,0.0112,-0.0458,2.6
2.012,-0.0405,-0.0218,0.0127,-0.0181,2.7
2.013,-0.033,-0.024,0.0135,0.0195,2.7
2.014,-0.024,-0.0256,0.0165,0.0427,2.8
2.015,-0.0113,-0.0233,0.0202,0.0367,2.8
2.016,-0.0015,-0.0053,0.0195,0.003,2.6
2.017,0.0007,0.0165,0.018,-0.0878,2.7
2.018,0.0015,0.0135,0.0195,-0.2033,2.6
2.019,0.0015,0.021,0.0195,-0.1411,2.7
2.02,0.0,0.0307,0.0247,-0.0248,2.5
2.021,-0.003,0.024,0.0315,0.0442,2.8
2.022,-0.0195,0.0127,0.0322,0.18,2.8
2.023,-0.0593,0.0157,0.0352,0.1575,2.7
2.024,-0.0983,0.0345,0.0322,0.1087,2.8
2.025,-0.1185,0.0285,0.0255,0.0975,2.6
2.026,-0.114,0.024,0.0195,0.012,2.8
2.027,-0.0893,0.0195,0.0157,-0.0083,2.6
2.028,-0.0593,0.009,0.0142,-0.0825,2.6
2.029,-0.03,0.009,0.015,-0.081,2.7
2.03,-0.0091,0.0165,0.0157,0.0592,2.6
2.031,0.003,0.018,0.021,0.1702,2.7
2.032,0.0127,0.006,0.0285,0.2242,2.6
2.033,0.018,0.0007,0.0255,0.078,2.6
2.034,0.0165,-0.0053,0.0202,-0.0653,2.4
2.035,0.0112,-0.012,0.0165,-0.099,2.7
2.036,0.009,-0.0091,0.015,-0.048,2.5
2.037,0.0067,-0.0008,0.015,0.051,2.7
2.038,0.0067,0.0075,0.0165,-0.0068,2.6
2.039,0.0105,0.0067,0.0195,-0.0413,2.4
2.04,0.015,-0.0008,0.018,-0.0165,2.6
2.041,0.0187,-0.0091,0.0135,0.0255,2.5
2.042,0.024,-0.0158,0.015,0.2092,2.6
2.043,0.0255,-0.0143,0.015,0.2362,2.4
2.044,0.0307,-0.0068,0.0105,0.0975,2.4
2.045,0.0307,0.0015,0.0082,0.1005,2.6
2.046,0.0322,0.0007,0.0075,0.1125,2.5
2.047,0.0315,-0.0068,0.0052,0.0622,2.6
2.048,0.0277,-0.012,0.0007,0.0495,2.3
2.049,0.0232,-0.0181,-0.0015,0.0592,2.6
2.05,0.0157,-0.0188,-0.0015,0.1042,2.4
2.051,0.0075,-0.0188,-0.003,0.1702,2.6
2.052,0.0015,-0.0203,-0.006,0.141,2.3
2.053,-0.003,-0.0181,-0.0068,0.0052,2.4
2.054,-0.006,-0.0083,-0.0053,-0.2085,2.3
2.055,-0.0038,-0.0023,-0.0038,-0.369,2.3
2.056,-0.003,0.003,-0.003,-0.0983,2.4
2.057,0.0,-0.006,-0.0023,0.153,2.4
2.058,0.006,-0.024,-0.0015,-0.012,2.4
2.059,0.0082,-0.0091,-0.0008,-0.0848,2.3
2.06,0.0127,0.0067,-0.0008,-0.1275,2.3
2.061,0.018,0.0037,-0.003,-0.216,2.2
2.062,0.0232,0.0067,-0.0008,-0.1808,2.3
2.063,0.027,0.0082,-0.0008,-0.0698,2.4
2.064,0.03,0.0052,-0.0015,-0.0233,2.2
2.065,0.033,-0.0023,-0.003,0.027,2.5
2.066,0.0352,-0.015,-0.0046,0.1267,2.2
2.067,0.039,-0.0091,-0.0068,-0.0098,2.2
2.068,0.0397,0.0045,-0.0113,-0.1028,1.9
2.069,0.0405,-0.0008,-0.0105,-0.2258,2.1
2.07,0.042,0.003,-0.0091,-0.27,2.1
2.071,0.0427,0.0015,-0.0113,-0.021,2.2
2.072,0.0427,-0.0023,-0.012,-0.057,2.1
2.073,0.0405,-0.0008,-0.0075,-0.0653,2.0
2.074,0.0367,-0.0046,-0.0068,-0.0308,2.2
2.075,0.033,-0.0091,-0.0083,-0.0653,1.9
2.076,0.0277,-0.015,-0.0083,0.0345,2.3
2.077,0.0225,-0.0195,-0.0068,0.054,1.9
2.078,0.018,-0.0173,-0.0091,0.0367,2.0
2.079,0.015,-0.0083,-0.0113,-0.0383,2.0
2.08,0.0097,-0.0038,-0.012,-0.0728,2.0
2.081,0.0067,0.003,-0.0091,-0.12,1.9
2.082,0.0045,0.0067,-0.0046,-0.0938,2.1
2.083,0.003,0.003,-0.0053,0.033,2.0
2.084,0.0015,-0.0038,-0.0053,0.0382,2.0
2.085,-0.0015,-0.0143,-0.006,0.0352,1.9
2.086,-0.0046,-0.0181,-0.0068,0.0157,1.9
2.087,-0.0053,-0.021,-0.0083,0.0255,1.9
2.088,-0.0053,-0.0181,-0.0068,0.0045,1.8
2.089,-0.0046,-0.0158,-0.0046,-0.0346,1.8
2.09,-0.003,-0.0128,-0.0046,0.0187,2.0
2.091,0.0015,-0.0083,-0.0023,0.063,1.8
2.092,0.0045,-0.0068,0.0007,0.0232,1.8
2.093,0.0067,-0.0091,-0.0008,-0.0668,1.8
2.094,0.0075,-0.015,-0.0015,-0.0593,1.8
2.095,0.0075,-0.0158,-0.0008,-0.0091,1.8
2.096,0.0105,-0.0128,0.0037,0.0187,1.8
2.097,0.0105,0.0015,0.006,-0.0203,1.8
2.098,0.0082,0.0157,0.006,0.0082,1.6
2.099,0.006,0.0127,0.0045,0.114,1.9
2.1,0.0067,0.0127,-0.0008,0.0435,1.7
2.101,0.0075,0.0165,0.0007,0.0682,1.8
2.102,0.0075,0.0187,-0.0015,0.0915,1.6
2.103,0.006,0.0277,-0.0053,-0.0165,1.5
2.104,0.0045,0.0277,-0.0068,0.0202,1.8
2.105,0.0045,0.0285,-0.0046,0.0877,1.6
2.106,0.003,0.0262,0.0007,0.1635,1.8
2.107,0.003,0.0142,0.0045,0.1657,1.6
2.108,0.0045,0.0217,0.0052,0.0787,1.9
2.109,0.0052,0.0255,0.0022,0.1335,1.8
2.11,0.003,0.0105,0.0007,0.1372,1.9
2.111,0.0022,0.0082,0.0,-0.0128,1.8
2.112,0.0,0.0142,-0.0046,-0.078,1.8
2.113,-0.0023,0.0105,-0.0053,-0.0945,1.7
2.114,-0.0075,0.0142,-0.0053,-0.0818,1.6
2.115,-0.0113,0.0307,0.0007,0.0082,1.8
2.116,-0.0143,0.0382,0.0022,-0.0098,1.6
2.117,-0.021,0.0427,0.0007,-0.0608,1.8
2.118,-0.0225,0.0442,0.003,-0.0165,1.8
2.119,-0.0233,0.0315,0.0045,-0.0165,1.8
2.12,-0.0225,0.0067,0.0045,-0.0181,1.8
2.121,-0.0188,-0.0083,0.0007,-0.0023,1.6
2.122,-0.0195,0.0007,0.0007,-0.0533,1.9
2.123,-0.0195,0.0007,0.0007,-0.0248,1.5
2.124,-0.0158,0.0067,0.0007,-0.0361,1.8
2.125,-0.0105,0.018,-0.0015,-0.105,1.5
2.126,-0.0091,0.0172,-0.0053,-0.0555,1.8
2.127,-0.0083,-0.0068,-0.0053,-0.0038,1.6
2.128,-0.0075,-0.0518,-0.0053,0.042,1.8
2.129,-0.0075,-0.0653,-0.003,0.1065,1.7
2.13,-0.0091,-0.0405,-0.0008,0.1102,1.7
2.131,-0.0105,-0.0195,0.0015,0.027,1.8
2.132,-0.0105,-0.006,0.0015,0.0075,1.6
2.133,-0.0143,0.0037,0.0,0.0405,1.7
2.134,-0.0143,0.0105,-0.0046,-0.0038,1.7
2.135,-0.0135,0.0165,-0.0053,-0.0818,1.4
2.136,-0.012,0.0105,-0.0053,-0.0645,1.5
2.137,-0.0091,-0.0023,-0.0053,0.0817,1.5
2.138,-0.0091,-0.0135,-0.0053,0.0952,1.5
2.139,-0.0068,-0.012,-0.0068,0.0487,1.5
2.14,-0.0053,-0.0068,-0.0046,0.0472,1.7
2.141,-0.0015,-0.0135,-0.0083,0.006,1.5
2.142,0.0007,-0.0158,-0.0128,0.0067,1.6
2.143,0.0,-0.015,-0.0098,-0.0135,1.5
2.144,-0.0015,-0.015,-0.0105,-0.024,1.5
2.145,-0.0008,-0.0165,-0.0098,-0.0285,1.6
2.146,0.0022,-0.0181,-0.0075,-0.033,1.5
2.147,0.0067,-0.0181,-0.0083,-0.0015,1.6
2.148,0.0097,-0.0165,-0.0053,0.0195,1.5
2.149,0.0112,-0.012,-0.003,0.024,1.6
2.15,0.0142,-0.0135,-0.0008,0.0135,1.6
2.151,0.0127,-0.0165,-0.0023,0.0,1.6
2.152,0.0142,-0.0113,-0.0023,-0.0975,1.7
2.153,0.018,0.0007,-0.0023,-0.213,1.3
2.154,0.021,0.0127,-0.003,-0.156,1.7
2.155,0.024,0.0172,-0.0023,-0.0668,1.7
2.156,0.0255,0.0142,-0.003,-0.0436,1.8
2.157,0.0247,0.009,-0.003,0.0367,1.5
2.158,0.0255,0.0007,0.0007,0.1267,1.9
2.159,0.0225,-0.0105,0.003,0.1747,1.6
2.16,0.0202,-0.0128,0.0045,0.0577,1.6
2.161,0.0172,0.0067,0.0045,-0.096,1.5
2.162,0.0135,0.0315,0.0067,-0.1433,1.6
2.163,0.0112,0.042,0.0097,-0.1988,1.7
2.164,0.009,0.0315,0.0097,-0.0563,1.3
2.165,0.0045,0.0217,0.0082,0.0555,1.6
2.166,-0.0008,0.0075,0.0082,0.0397,1.8
2.167,-0.006,-0.0075,0.009,0.0967,1.4
2.168,-0.0105,-0.0075,0.0052,-0.0083,1.6
2.169,-0.0113,-0.003,0.003,-0.0691,1.6
2.17,-0.0068,0.0045,0.0022,0.048,1.8
2.171,-0.0015,0.0,0.0015,0.0195,1.3
2.172,0.0007,-0.0068,0.003,-0.1088,1.6
2.173,0.0045,-0.003,0.0015,-0.1575,1.5
2.174,0.0037,-0.0083,-0.0008,-0.093,1.8
2.175,0.0007,-0.0165,-0.003,-0.0308,1.4
2.176,-0.0046,-0.015,-0.0053,-0.048,1.6
2.177,-0.012,-0.0105,-0.0038,0.0202,1.5
2.178,-0.0173,-0.006,-0.0023,0.0532,1.7
2.179,-0.024,-0.0038,0.0,0.1267,1.7
2.18,-0.0308,-0.0195,0.0045,0.276,1.7
2.181,-0.0346,-0.0225,0.0067,0.1942,1.5
2.182,-0.0353,-0.0083,0.0075,0.1507,1.6
2.183,-0.0338,-0.0053,0.009,0.1155,1.8
2.184,-0.0256,-0.0068,0.0075,-0.1426,1.6
2.185,-0.0173,-0.0046,0.0045,-0.3015,1.3
2.186,-0.0143,-0.012,0.0022,-0.1426,1.7
2.187,-0.0128,-0.0353,0.0045,-0.0015,1.6
2.188,-0.0128,-0.0375,0.0045,-0.0728,1.6
2.189,-0.015,-0.0083,-0.0015,-0.0488,1.7
2.19,-0.0135,0.0015,-0.0038,0.021,1.8
2.191,-0.0091,-0.0053,-0.006,0.0802,1.7
2.192,-0.003,-0.0128,-0.0046,0.0915,1.5
2.193,0.0022,-0.0068,-0.003,0.003,1.7
2.194,0.006,-0.006,-0.0038,-0.003,1.6
2.195,0.009,-0.0188,-0.0053,0.0045,1.8
2.196,0.0097,-0.0128,-0.0105,0.0442,1.5
2.197,0.0075,-0.0068,-0.0091,0.0937,1.8
2.198,0.009,-0.0091,-0.0068,0.141,1.8
2.199,0.0105,-0.0015,-0.0083,0.171,1.6
2.2,0.0105,0.012,-0.0068,0.0292,1.7
2.201,0.0105,0.0135,0.0,-0.1125,1.6
2.202,0.0097,0.0105,0.0052,-0.1898,1.8
2.203,0.0067,0.024,0.009,-0.267,1.4
2.204,0.0037,0.03,0.006,-0.0878,1.8
2.205,0.0015,0.0082,0.0052,0.0607,1.6
2.206,-0.003,0.0,0.0052,-0.033,1.9
2.207,-0.0023,0.0127,0.0,0.0082,1.7
2.208,-0.003,0.015,-0.0038,0.024,1.7
2.209,-0.003,0.0127,-0.0015,0.042,1.8
2.21,-0.0008,0.0075,0.0015,0.0405,1.7
2.211,0.0015,0.0015,0.003,0.009,1.9
2.212,0.003,-0.0008,-0.0008,0.024,1.6
2.213,0.0015,-0.003,0.0007,-0.0181,1.8
2.214,0.0007,-0.0038,-0.0008,-0.0195,1.7
2.215,-0.0015,0.0007,-0.0008,-0.0361,1.6
2.216,-0.0038,0.0052,-0.0008,-0.0128,1.7
2.217,-0.0046,0.0045,-0.0015,-0.0098,1.6
2.218,-0.0053,0.0045,-0.0023,-0.0285,1.8
2.219,-0.0023,0.0052,0.0,0.0232,1.5
2.22,-0.0008,0.0045,0.0007,0.0277,1.8
2.221,-0.0015,0.0037,-0.003,0.0682,1.5
2.222,-0.0015,-0.006,-0.003,0.1762,1.7
2.223,0.0,-0.0308,-0.0008,0.2107,1.5
2.224,0.0022,-0.03,-0.003,0.123,1.7
2.225,0.003,-0.0113,-0.003,0.1597,1.8
2.226,0.0045,0.0007,-0.0008,0.1665,1.5
2.227,0.0037,0.0135,0.003,-0.0803,1.7
2.228,0.003,0.0105,0.0097,-0.2866,1.5
2.229,0.0045,0.0082,0.0112,-0.3436,1.5
2.23,0.0052,0.0112,0.0127,-0.1388,1.7
2.231,0.0082,0.0022,0.0105,0.0015,1.5
2.232,0.0082,0.0052,0.006,-0.027,1.6
2.233,0.0097,0.0022,0.0037,0.0442,1.6
2.234,0.012,0.0007,0.0007,0.0202,1.8
2.235,0.0142,0.0052,-0.0008,0.0405,1.6
2.236,0.015,0.0007,-0.0023,0.051,1.7
2.237,0.015,0.0045,-0.003,0.0097,1.7
2.238,0.0157,-0.003,-0.0046,-0.0338,1.6
2.239,0.0165,-0.0068,-0.006,-0.0825,1.4
2.24,0.0157,0.0007,-0.006,-0.0068,1.6
2.241,0.0127,-0.0053,-0.0038,0.0052,1.8
2.242,0.0082,-0.0113,-0.0008,0.0322,1.5
2.243,0.0067,-0.0105,-0.0008,0.0742,1.7
2.244,0.0067,-0.003,0.003,0.0607,1.5
2.245,0.0067,0.0052,0.0045,0.0457,1.6
2.246,0.0052,0.0037,0.003,-0.0256,1.5
2.247,0.0037,0.0,0.0007,-0.0068,1.5
2.248,0.0045,-0.0053,0.0007,0.0105,1.5
2.249,0.006,-0.0105,0.0007,-0.0173,1.5
2.25,0.009,-0.0105,0.0015,-0.0023,1.7
2.251,0.009,-0.0046,0.003,-0.0195,1.3
2.252,0.006,0.0022,0.0007,-0.0225,1.6
2.253,-0.0008,0.0075,0.0,0.0127,1.6
2.254,-0.0053,0.012,-0.0008,0.1012,1.6
2.255,-0.0083,0.0052,-0.0008,0.129,1.7
2.256,-0.012,0.0075,0.0,0.0622,1.5
2.257,-0.0143,0.0142,-0.0008,0.1027,1.8
2.258,-0.0165,0.009,0.0015,0.069,1.5
2.259,-0.0203,0.0082,0.0015,-0.066,1.6
2.26,-0.0263,0.006,0.0015,-0.0825,1.4
2.261,-0.0278,0.0052,-0.0008,-0.0848,1.6
2.262,-0.0278,0.0067,-0.0023,-0.1043,1.5
2.263,-0.0278,0.0105,-0.0015,-0.1208,1.6
2.264,-0.0233,0.0195,-0.0015,-0.2415,1.5
2.265,-0.0165,0.0195,-0.0046,-0.309,1.3
2.266,-0.0083,0.0105,-0.0023,-0.0428,1.6
2.267,0.0007,0.0037,0.0022,0.2025,1.6
2.268,0.009,0.0015,0.0022,0.1462,1.8
2.269,0.0165,-0.0038,0.0007,0.105,1.4
2.27,0.0292,-0.0068,0.003,0.06,1.6
2.271,0.0472,0.0007,0.0075,-0.012,1.5
2.272,0.0765,-0.006,0.0045,-0.0008,1.6
2.273,0.1372,-0.0113,0.0052,-0.0578,1.5
2.274,0.2265,0.0007,0.0045,-0.0608,1.6
2.275,0.351,0.012,0.0,-0.003,1.8
2.276,0.438,0.0225,0.0,-0.0188,1.5
2.277,0.3855,0.0292,0.0022,-0.0675,1.7
2.278,0.2835,0.024,0.0075,-0.033,1.7
2.279,0.2062,0.0045,0.009,0.1575,1.7
2.28,0.1192,-0.015,0.0105,0.2085,1.7
2.281,0.0405,-0.0181,0.0082,0.1335,1.6
2.282,-0.0256,-0.0091,0.003,0.0082,1.7
2.283,-0.0728,0.0067,0.0022,-0.1006,1.7
2.284,-0.0938,0.009,0.0015,-0.0218,1.8
2.285,-0.0975,-0.0053,0.0,0.0052,1.6
2.286,-0.1035,-0.0091,-0.0015,-0.0338,1.8
2.287,-0.1215,-0.0038,-0.0038,-0.006,1.8
2.288,-0.1298,-0.0083,-0.003,0.0112,1.8
2.289,-0.129,-0.0053,-0.0038,0.0157,1.8
2.29,-0.1215,-0.0053,-0.0075,0.006,1.6
2.291,-0.1163,-0.0083,-0.0068,-0.0128,1.8
2.292,-0.108,-0.0083,-0.006,-0.0091,1.5
2.293,-0.093,-0.0158,-0.006,-0.0008,1.9
2.294,-0.078,-0.0181,-0.0053,0.0405,1.7
2.295,-0.0706,-0.0203,-0.0046,0.0247,1.8
2.296,-0.0608,-0.0195,-0.003,-0.0181,1.8
2.297,-0.057,-0.0203,-0.003,0.003,1.8
2.298,-0.0465,-0.0233,-0.003,-0.012,2.0
2.299,-0.0353,-0.0218,-0.003,-0.0083,1.8
2.3,-0.0323,-0.0203,-0.0046,-0.0105,2.0
2.301,-0.0315,-0.0181,-0.0046,-0.0195,1.7
2.302,-0.033,-0.015,-0.0038,-0.0083,2.0
2.303,-0.0308,-0.0143,-0.0053,-0.0165,2.0
2.304,-0.0181,-0.0128,-0.0038,-0.0068,2.1
2.305,-0.0195,-0.0098,-0.0046,-0.003,2.0
2.306,-0.033,-0.0068,-0.0038,0.0037,1.9
2.307,-0.039,-0.0038,-0.0008,0.0045,2.1
2.308,-0.0511,-0.0023,-0.0008,-0.0008,1.9
2.309,-0.0675,-0.0008,-0.0008,0.0007,2.0
2.31,-0.0773,0.0007,0.0,-0.0038,2.1
2.311,-0.0743,0.0022,0.0015,-0.0046,2.0
2.312,-0.0653,0.0052,-0.0008,-0.012,2.1
2.313,-0.063,0.0067,0.0007,-0.0098,2.0
2.314,-0.0615,0.006,0.0045,-0.0105,2.3
2.315,-0.0563,0.0037,0.0015,-0.0068,2.0
2.316,-0.0495,-0.0008,0.0015,0.0097,2.2
2.317,-0.0443,-0.0046,0.003,0.0142,2.1
2.318,-0.042,-0.0046,0.0015,0.0015,2.1
2.319,-0.0405,-0.0008,-0.0008,-0.0075,2.1
2.32,-0.039,-0.0008,-0.0008,-0.0068,2.2
2.321,-0.0315,0.0007,0.0007,-0.0098,2.3
2.322,-0.0278,-0.0008,0.003,-0.0083,2.2
2.323,-0.0181,-0.0015,0.0015,-0.0105,2.4
2.324,-0.0046,-0.0015,0.0007,-0.0128,2.2
2.325,0.0045,-0.003,0.0015,-0.012,2.3
2.326,0.012,-0.0015,0.003,-0.0105,2.2
2.327,0.0157,-0.0008,0.003,-0.0091,2.2
2.328,0.0157,0.0,0.003,-0.0098,2.4
2.329,0.0195,-0.0015,0.0007,-0.0068,2.4
2.33,0.024,-0.0023,0.0015,-0.0053,2.4
2.331,0.0292,-0.0015,0.0007,-0.0038,2.3
2.332,0.0345,-0.0015,-0.0008,-0.0015,2.4
2.333,0.039,-0.0008,-0.0008,-0.0023,2.4
2.334,0.0375,-0.0015,0.0022,-0.0008,2.5
2.335,0.0367,0.0,0.0052,0.0007,2.6
2.336,0.0405,0.0007,0.0067,0.0007,2.4
2.337,0.042,0.0015,0.006,0.003,2.6
2.338,0.0427,0.0015,0.0045,0.006,2.5
2.339,0.0397,0.003,0.0037,0.009,2.8
2.34,0.0405,0.0045,0.0045,0.0127,2.4
2.341,0.0487,0.0045,0.0052,0.0105,2.8
2.342,0.0532,0.0052,0.0067,0.0052,2.6
2.343,0.0517,0.0052,0.0045,0.003,2.8
2.344,0.0465,0.0045,0.0037,0.0015,2.6
2.345,0.0375,0.0022,0.0015,0.0007,2.6
2.346,0.0277,0.0022,0.0015,-0.0015,2.9
2.347,0.0165,0.003,0.0015,-0.0015,2.7
2.348,0.012,0.003,-0.0015,-0.0046,2.9
2.349,0.0067,0.0037,-0.003,-0.0075,2.9
2.35,0.0052,0.003,-0.003,-0.0105,2.9
2.351,0.0112,0.003,-0.0053,-0.0098,3.0
2.352,0.0217,0.0015,-0.0068,-0.0068,2.8
2.353,0.0292,-0.0008,-0.0075,-0.0083,2.9
2.354,0.0285,-0.0008,-0.0091,-0.0105,2.8
2.355,0.0292,0.0015,-0.0083,-0.015,3.1
2.356,0.0277,0.0052,-0.0068,-0.0143,3.0
2.357,0.0232,0.0067,-0.0053,-0.012,3.2
2.358,0.0202,0.0045,-0.0008,-0.0113,3.2
2.359,0.015,0.0015,0.0,-0.0083,3.1
2.36,0.012,-0.0008,0.003,-0.0068,3.1
2.361,0.012,-0.0015,0.003,-0.0053,3.1
2.362,0.0082,-0.0015,0.0,-0.0068,3.4
2.363,0.0015,-0.0015,0.0,-0.0053,3.2
2.364,-0.0046,-0.0015,-0.0015,-0.003,3.5
2.365,-0.0105,-0.0008,-0.0053,-0.0008,3.1
2.366,-0.021,0.0,-0.0091,0.0,3.2
2.367,-0.0293,0.0007,-0.0105,-0.0015,3.4
2.368,-0.0315,0.0007,-0.012,-0.003,3.3
2.369,-0.0256,0.0015,-0.0068,-0.0075,3.5
2.37,-0.0181,0.003,-0.0046,-0.0083,3.4
2.371,-0.0105,0.0045,-0.0053,-0.0083,3.6
2.372,-0.0038,0.003,-0.0015,-0.0105,3.4
2.373,0.0105,0.0015,-0.003,-0.0098,3.6
2.374,0.0135,0.0037,0.0007,-0.0098,3.6
2.375,0.0015,0.0052,-0.0008,-0.0068,3.6
2.376,-0.003,0.0067,-0.0008,-0.0046,3.6
2.377,-0.0105,0.0082,0.0007,-0.0008,3.6
2.378,-0.0158,0.006,0.0015,0.0067,3.9
2.379,-0.0225,0.003,0.003,0.0082,3.7
2.38,-0.0293,0.0007,0.0045,0.0075,3.9
2.381,-0.027,-0.0008,0.0075,0.0075,3.8
2.382,-0.0218,0.0015,0.009,0.006,3.8
2.383,-0.0165,0.003,0.009,0.0067,3.9
2.384,-0.015,0.0007,0.009,0.0112,3.9
2.385,-0.0158,-0.0015,0.0105,0.0142,4.1
2.386,-0.0181,-0.0038,0.0105,0.0187,3.8
2.387,-0.0165,-0.0053,0.012,0.0217,4.1
2.388,-0.0158,-0.0053,0.0142,0.024,3.9
2.389,-0.0181,-0.0046,0.0135,0.0337,4.3
2.39,-0.0143,-0.006,0.0135,0.042,4.2
2.391,-0.0105,-0.0083,0.012,0.0502,4.1
2.392,-0.0068,-0.0083,0.012,0.0592,4.2
2.393,-0.0038,-0.0083,0.0105,0.0562,4.1
2.394,-0.0008,-0.0091,0.0075,0.0465,4.3
2.395,-0.0015,-0.0083,0.0067,0.0337,4.1
2.396,0.0022,-0.0091,0.0045,0.021,4.4
2.397,0.003,-0.0105,0.0015,0.0067,4.3
2.398,-0.0008,-0.0091,-0.0008,-0.0046,4.5
2.399,-0.0038,-0.006,-0.0015,-0.0128,4.5
2.4,-0.0068,-0.0046,-0.0023,-0.0218,4.6
2.401,-0.0105,-0.0023,-0.0023,-0.0248,4.7
2.402,-0.0091,-0.0008,-0.003,-0.0233,4.6
2.403,-0.0091,-0.0008,-0.003,-0.0195,4.9
2.404,-0.012,0.0,-0.0023,-0.0188,4.5
2.405,-0.0128,0.0,-0.0053,-0.0158,4.9
2.406,-0.0128,0.0007,-0.0053,-0.015,4.8
2.407,-0.0113,0.0015,-0.0046,-0.0143,4.9
2.408,-0.003,0.0,-0.0046,-0.0128,4.9
2.409,0.0112,0.0015,-0.0038,-0.0165,5.0
2.41,0.0225,0.0015,-0.0015,-0.0218,5.3
2.411,0.0322,0.003,-0.0008,-0.0256,5.0
2.412,0.039,0.0052,0.0007,-0.0293,5.2
2.413,0.0307,0.0052,0.0015,-0.0308,5.2
2.414,0.0045,0.0082,0.0015,-0.0293,5.3
2.415,-0.0375,0.009,0.0022,-0.0308,5.4
2.416,-0.0458,0.0082,0.0015,-0.0323,5.5
2.417,-0.0248,0.009,-0.0008,-0.0278,5.5
2.418,-0.0375,0.0097,0.0007,-0.0218,5.6
2.419,-0.0383,0.0127,0.0037,-0.0165,5.8
2.42,-0.0368,0.0127,0.0037,-0.0105,5.6
2.421,-0.0413,0.0127,0.0022,-0.0098,5.9
2.422,-0.027,0.0142,0.0015,-0.0113,5.8
2.423,-0.015,0.0105,-0.0015,-0.0083,6.1
2.424,0.006,0.0105,-0.0008,-0.0038,6.0
2.425,0.0127,0.0082,0.0015,-0.0023,6.1
2.426,0.018,0.0045,-0.0008,0.0,6.3
2.427,0.0195,0.0037,-0.0015,0.0015,6.3
2.428,0.0165,0.0015,-0.003,0.0037,6.5
2.429,0.0217,0.0,-0.0023,0.0045,6.4
2.43,0.0247,0.0007,-0.0015,-0.0015,6.6
2.431,0.0352,0.0015,-0.0046,-0.0046,6.7
2.432,0.039,0.0015,-0.0038,-0.003,6.7
2.433,0.0457,0.003,-0.0053,-0.003,6.7
2.434,0.0427,0.003,-0.006,-0.003,6.7
2.435,0.0375,0.0007,-0.0068,-0.0046,6.8
2.436,0.0315,0.0,-0.0083,-0.006,6.8
2.437,0.0255,0.0007,-0.006,-0.0083,7.2
2.438,0.027,0.0015,-0.0053,-0.0091,7.1
2.439,0.0277,-0.0015,-0.0046,-0.0053,7.2
2.44,0.0352,-0.0038,-0.0038,-0.0008,7.2
2.441,0.0345,-0.0046,-0.0046,0.0045,7.1
2.442,0.033,-0.006,-0.003,0.0097,7.4
2.443,0.03,-0.0068,-0.003,0.0127,7.3
2.444,0.0247,-0.0068,-0.0046,0.0157,7.8
2.445,0.024,-0.0091,-0.003,0.0157,7.5
2.446,0.0202,-0.0128,-0.0023,0.018,7.7
2.447,0.0232,-0.0165,-0.003,0.0195,7.8
2.448,0.0225,-0.0165,-0.0015,0.0225,7.9
2.449,0.0217,-0.0165,-0.0053,0.0217,7.9
2.45,0.021,-0.0158,-0.0053,0.0217,7.9
2.451,0.0217,-0.0128,-0.0015,0.024,8.1
2.452,0.024,-0.0128,-0.0015,0.0232,8.1
2.453,0.0277,-0.0098,-0.0008,0.024,8.5
2.454,0.033,-0.0068,0.0,0.024,8.3
2.455,0.0352,-0.0053,0.003,0.0225,8.4
2.456,0.0352,-0.003,0.003,0.0217,8.5
2.457,0.0322,-0.0068,0.003,0.0165,8.7
2.458,0.0292,-0.0083,0.003,0.012,8.8
2.459,0.0247,-0.0046,0.0022,0.0082,8.7
2.46,0.0157,0.0,0.0015,0.003,9.0
2.461,0.0112,-0.0008,0.0007,-0.0008,9.0
2.462,0.0082,-0.0105,0.0007,-0.003,9.4
2.463,0.0045,-0.0143,0.0015,0.0,9.2
2.464,0.0022,-0.0091,0.0022,0.0007,9.4
2.465,-0.003,-0.0008,0.0015,-0.0008,9.5
2.466,-0.0113,0.0067,0.0007,0.0007,9.7
2.467,-0.0188,0.009,0.0007,-0.0015,9.9
2.468,-0.0248,0.0075,0.0015,-0.0015,9.9
2.469,-0.0278,0.003,0.003,-0.0046,10.1
2.47,-0.03,0.003,0.0037,-0.0091,10.1
2.471,-0.03,0.0015,0.003,-0.0083,10.3
2.472,-0.03,-0.0008,0.0045,-0.0105,10.4
2.473,-0.0278,0.0,0.0052,-0.0135,10.4
2.474,-0.0285,0.0052,0.0067,-0.0105,10.7
2.475,-0.0293,0.0097,0.0052,0.0105,10.7
2.476,-0.0263,0.0052,0.0045,0.0157,10.9
2.477,-0.0218,0.0045,0.003,-0.0165,11.0
2.478,-0.0233,0.0037,0.0,-0.0165,11.2
2.479,-0.024,0.0052,0.0007,-0.003,11.2
2.48,-0.0248,0.0082,-0.0008,-0.0046,11.5
2.481,-0.0218,0.0105,-0.0008,0.0015,11.5
2.482,-0.0233,0.0097,-0.0008,-0.0091,11.7
2.483,-0.027,0.0015,-0.0008,-0.0165,11.8
2.484,-0.03,-0.0008,0.0007,-0.021,11.8
2.485,-0.0346,0.003,0.0007,-0.0285,12.1
2.486,-0.0353,0.0052,-0.003,-0.0233,12.1
2.487,-0.0308,0.0037,-0.0046,-0.0195,12.2
2.488,-0.027,-0.0015,-0.0053,-0.012,12.5
2.489,-0.024,-0.0015,-0.0083,-0.006,12.5
2.49,-0.0203,0.0,-0.0083,-0.0046,12.8
2.491,-0.0158,-0.003,-0.0075,-0.0053,12.8
2.492,-0.012,-0.003,-0.0083,-0.006,13.1
2.493,-0.0053,-0.0015,-0.0091,-0.0091,13.0
2.494,0.0007,0.0007,-0.0105,-0.0105,13.4
2.495,0.0075,0.0067,-0.012,-0.0128,13.4
2.496,0.0112,0.012,-0.0135,-0.0128,13.7
2.497,0.0142,0.0157,-0.0135,-0.0038,13.7
2.498,0.018,0.018,-0.012,0.0022,14.0
2.499,0.0217,0.0135,-0.0143,0.009,14.1
2.5,0.0247,0.0105,-0.0143,0.018,14.3
2.501,0.0255,0.009,-0.0105,0.0217,14.5
2.502,0.027,0.003,-0.0083,0.0255,14.6
2.503,0.03,-0.0046,-0.0068,0.0292,14.9
2.504,0.027,-0.0113,-0.006,0.0322,15.0
2.505,0.0232,-0.0046,-0.003,0.0375,15.1
2.506,0.021,0.0045,0.0007,0.036,15.5
2.507,0.0217,0.0082,0.0007,0.0277,15.4
2.508,0.0217,0.0135,0.0015,0.0247,15.7
2.509,0.0217,0.0142,0.0007,0.0247,15.8
2.51,0.0217,0.0187,-0.0015,0.009,16.2
2.511,0.021,0.024,-0.0015,-0.0128,16.0
2.512,0.0195,0.0232,-0.003,-0.0195,16.5
2.513,0.0172,0.0142,-0.0075,-0.0135,16.5
2.514,0.0165,0.009,-0.0091,-0.0083,16.7
2.515,0.018,0.0097,-0.0091,-0.0046,16.8
2.516,0.0195,0.009,-0.0091,0.0105,17.0
2.517,0.0142,0.0075,-0.0091,0.0427,17.3
2.518,0.0157,0.0015,-0.0091,0.0405,17.4
2.519,0.0232,0.0045,-0.0091,0.0015,17.5
2.52,0.0225,0.0015,-0.0053,0.0105,17.7
2.521,0.0172,-0.0053,-0.003,0.027,17.9
2.522,0.0195,-0.003,0.0,0.0285,18.1
2.523,0.0225,-0.0046,0.0052,0.0382,18.4
2.524,0.0292,-0.0098,0.0112,0.0232,18.5
2.525,0.0307,-0.0165,0.0202,0.0157,18.7
2.526,0.027,-0.0203,0.0262,0.0067,19.1
2.527,0.0262,-0.0195,0.0292,-0.0135,19.1
2.528,0.0255,-0.0098,0.0315,-0.027,19.5
2.529,0.0255,0.0007,0.0292,-0.039,19.5
2.53,0.0255,0.003,0.0277,-0.0346,19.8
2.531,0.0255,-0.0008,0.0255,-0.0353,19.8
2.532,0.024,-0.003,0.0247,-0.045,20.2
2.533,0.021,-0.0038,0.0232,-0.057,20.3
2.534,0.0195,-0.0091,0.0232,-0.0735,20.7
2.535,0.0172,-0.0158,0.021,-0.0938,20.7
2.536,0.0127,-0.0248,0.0195,-0.114,21.0
2.537,0.009,-0.0353,0.018,-0.1343,21.0
2.538,0.0097,-0.0405,0.0135,-0.165,21.4
2.539,0.009,-0.0428,0.0082,-0.1763,21.5
2.54,0.0037,-0.0488,0.0022,-0.18,21.8
2.541,-0.0046,-0.0503,0.003,-0.1928,22.0
2.542,-0.0128,-0.0458,0.0045,-0.1928,22.4
2.543,-0.0135,-0.0428,0.0037,-0.1793,22.5
2.544,-0.015,-0.0353,0.0045,-0.159,22.7
2.545,-0.0173,-0.0293,0.0037,-0.1335,22.9
2.546,-0.0173,-0.0323,0.0037,-0.1006,23.3
2.547,-0.0181,-0.0338,0.003,-0.0698,23.4
2.548,-0.0218,-0.0338,0.0015,-0.0405,23.8
2.549,-0.0338,-0.0285,-0.0038,-0.0165,23.8
2.55,-0.0503,-0.0173,-0.0263,0.003,24.2
2.551,-0.0653,-0.0105,-0.0788,0.0262,24.3
2.552,-0.0706,-0.0105,-0.12,0.0487,24.7
2.553,-0.0706,-0.0105,-0.0698,0.0615,24.8
2.554,-0.078,-0.0083,0.0315,0.0622,25.2
2.555,-0.0878,-0.0053,0.0675,0.0615,25.5
2.556,-0.0878,0.0007,0.03,0.0712,25.6
2.557,-0.0825,0.0052,-0.0068,0.0892,26.0
2.558,-0.078,0.0022,-0.0346,0.108,26.2
2.559,-0.0788,0.003,-0.0525,0.123,26.3
2.56,-0.0765,0.0127,-0.0405,0.1305,26.7
2.561,-0.0615,0.0172,-0.0218,0.1365,26.9
2.562,-0.0503,0.0217,0.0045,0.1425,27.4
2.563,-0.042,0.024,0.0315,0.1402,27.3
2.564,-0.0218,0.018,0.0412,0.141,27.9
2.565,-0.0053,0.018,0.0292,0.1417,27.9
2.566,0.0105,0.018,0.0,0.1312,28.3
2.567,0.0217,0.0135,-0.024,0.1245,28.6
2.568,0.03,0.0052,-0.0383,0.1185,28.8
2.569,0.0307,-0.0008,-0.0285,0.108,29.0
2.57,0.0255,-0.0008,-0.0015,0.0847,29.4
2.571,0.0247,0.0022,0.0247,0.0637,29.8
2.572,0.0255,0.0067,0.0405,0.0607,29.9
2.573,0.027,0.0157,0.0442,0.0577,30.2
2.574,0.0262,0.0232,0.0495,0.0577,30.4
2.575,0.024,0.027,0.0465,0.0577,30.6
2.576,0.024,0.0277,0.0345,0.0555,30.9
2.577,0.0247,0.0255,0.0217,0.054,31.1
2.578,0.0202,0.0217,0.0075,0.0517,31.5
2.579,0.0165,0.0195,-0.0105,0.0532,31.5
2.58,0.018,0.0172,-0.0188,0.0525,32.1
2.581,0.0112,0.0142,-0.0128,0.0495,32.0
2.582,0.0082,0.0165,-0.0008,0.0382,32.5
2.583,0.0105,0.0202,0.0045,0.0195,32.6
2.584,0.0142,0.0225,0.0045,0.0007,33.0
2.585,0.0105,0.027,0.003,-0.006,33.3
2.586,-0.0068,0.0307,-0.0008,0.0015,33.4
2.587,-0.0143,0.0255,0.0015,0.0015,33.8
2.588,-0.0225,0.0195,0.0037,0.0015,33.9
2.589,-0.0263,0.0105,0.0082,0.0217,34.3
2.59,-0.0165,0.0015,0.012,0.0577,34.4
2.591,-0.0023,-0.003,0.0135,0.0412,34.6
2.592,0.0217,-0.003,0.0142,-0.0128,35.0
2.593,0.0427,-0.0015,0.0127,-0.0143,35.1
2.594,0.0607,0.0,0.0105,-0.0195,35.4
2.595,0.0697,0.0007,0.009,-0.0308,35.5
2.596,0.0712,-0.003,0.0052,-0.021,35.9
2.597,0.0667,-0.0053,-0.0008,-0.0218,36.0
2.598,0.0517,-0.0046,-0.0038,-0.0158,36.3
2.599,0.0292,-0.0023,-0.0023,-0.0315,36.6
2.6,0.0007,-0.0068,0.003,-0.042,36.8
2.601,-0.0225,-0.0091,0.0097,-0.0428,36.9
2.602,-0.03,-0.0083,0.0127,-0.0518,37.1
2.603,-0.027,-0.0091,0.0142,-0.048,37.4
2.604,-0.0195,-0.0091,0.015,-0.0428,37.7
2.605,-0.012,-0.0068,0.0157,-0.0346,38.1
2.606,-0.0105,-0.006,0.012,-0.0308,38.2
2.607,-0.0105,-0.0053,0.0067,-0.0256,38.5
2.608,-0.0075,-0.0008,-0.0008,-0.0181,38.6
2.609,-0.0075,-0.0008,-0.0098,-0.015,38.7
2.61,-0.0143,-0.0068,-0.0181,-0.0158,39.1
2.611,-0.024,-0.0098,-0.027,-0.0233,39.1
2.612,-0.0308,-0.0128,-0.033,-0.0293,39.5
2.613,-0.027,-0.0143,-0.0405,-0.0293,39.6
2.614,-0.0173,-0.0128,-0.0525,-0.0233,40.0
2.615,-0.0053,-0.0143,-0.066,-0.0263,40.0
2.616,0.006,-0.0158,-0.0743,-0.024,40.2
2.617,0.018,-0.0203,-0.0848,0.0157,40.8
2.618,0.0345,-0.0285,-0.0885,0.0525,40.8
2.619,0.0532,-0.0285,-0.0863,0.0195,41.0
2.62,0.075,-0.0248,-0.084,-0.0113,40.9
2.621,0.0952,-0.0218,-0.0773,-0.006,41.5
2.622,0.1087,-0.0203,-0.0713,-0.0173,41.4
2.623,0.12,-0.0218,-0.0518,-0.0091,41.9
2.624,0.1297,-0.024,-0.0203,-0.0046,41.8
2.625,0.1267,-0.0218,0.0067,-0.003,42.3
2.626,0.117,-0.0188,0.0277,0.003,42.2
2.627,0.1087,-0.0181,0.0442,-0.003,42.6
2.628,0.1012,-0.0158,0.0705,0.0022,42.7
2.629,0.0892,-0.0135,0.0915,-0.0015,42.9
2.63,0.0742,-0.012,0.1072,-0.0038,43.1
2.631,0.054,-0.0083,0.1177,0.0007,43.1
2.632,0.0315,-0.006,0.1125,0.0015,43.3
2.633,0.0157,0.0007,0.1042,0.0015,43.8
2.634,0.003,0.009,0.0952,-0.003,43.9
2.635,-0.0023,0.018,0.0855,-0.0008,44.2
2.636,-0.0091,0.024,0.0772,-0.0008,44.4
2.637,-0.015,0.027,0.0735,0.0,44.8
2.638,-0.0195,0.0307,0.069,-0.0053,44.8
2.639,-0.0263,0.033,0.0615,-0.0143,45.1
2.64,-0.0368,0.0337,0.0592,-0.0195,45.2
2.641,-0.0436,0.0315,0.054,-0.033,45.6
2.642,-0.0428,0.03,0.0532,-0.0436,45.6
2.643,-0.0428,0.027,0.054,-0.0465,45.8
2.644,-0.0488,0.024,0.0442,-0.0495,46.0
2.645,-0.0533,0.0232,0.033,-0.0488,46.2
2.646,-0.0563,0.018,0.0202,-0.0465,46.4
2.647,-0.0608,0.015,0.0,-0.0465,46.6
2.648,-0.0608,0.0105,-0.0195,-0.0465,46.8
2.649,-0.0668,0.0075,-0.0323,-0.054,46.9
2.65,-0.0735,0.0045,-0.0428,-0.063,47.2
2.651,-0.0743,0.003,-0.0533,-0.063,47.3
2.652,-0.0803,0.003,-0.06,-0.0615,47.6
2.653,-0.0975,0.0045,-0.0675,-0.0608,47.8
2.654,-0.1065,0.0045,-0.0698,-0.0638,47.7
2.655,-0.1013,0.0045,-0.0645,-0.063,48.4
2.656,-0.0878,0.0052,-0.0518,-0.0555,48.2
2.657,-0.0825,0.0052,-0.033,-0.0495,48.7
2.658,-0.0863,0.0052,-0.015,-0.039,48.6
2.659,-0.0803,0.003,-0.021,-0.033,49.1
2.66,-0.075,0.0022,-0.0443,-0.0278,49.2
2.661,-0.0735,-0.0015,-0.0473,-0.0218,49.6
2.662,-0.0691,-0.003,-0.033,-0.0181,49.5
2.663,-0.0713,-0.003,-0.0181,-0.012,49.8
2.664,-0.0698,-0.0046,-0.015,-0.0091,49.9
2.665,-0.0691,-0.0046,-0.0368,-0.012,50.2
2.666,-0.066,-0.0068,-0.0698,-0.015,50.4
2.667,-0.0555,-0.0091,-0.1013,-0.0165,50.6
2.668,-0.0563,-0.0128,-0.1238,-0.0105,50.8
2.669,-0.0608,-0.0135,-0.1305,-0.0046,51.1
2.67,-0.0555,-0.0135,-0.1223,-0.0015,51.1
2.671,-0.048,-0.0143,-0.1073,0.0,51.3
2.672,-0.0361,-0.0113,-0.09,-0.003,51.3
2.673,-0.027,-0.0046,-0.0728,-0.0083,51.8
2.674,-0.0203,0.0022,-0.0645,-0.0158,51.8
2.675,-0.0128,0.003,-0.0578,-0.0181,52.1
2.676,-0.0053,0.0052,-0.0488,-0.0181,52.1
2.677,0.012,0.003,-0.0413,-0.0195,52.5
2.678,0.027,-0.0015,-0.0346,-0.0158,52.7
2.679,0.0307,-0.0105,-0.0256,-0.0053,52.8
2.68,0.0315,-0.0195,-0.0105,-0.0015,53.1
2.681,0.0345,-0.027,0.006,-0.0075,53.2
2.682,0.0352,-0.0346,0.0247,0.0045,53.6
2.683,0.0457,-0.0383,0.0427,0.0292,53.6
2.684,0.0562,-0.0405,0.0592,0.033,54.0
2.685,0.0637,-0.042,0.0765,0.033,54.0
2.686,0.0787,-0.0405,0.0915,0.0345,54.4
2.687,0.093,-0.039,0.1035,0.0285,54.3
2.688,0.1027,-0.0338,0.1177,0.033,54.7
2.689,0.1095,-0.0256,0.1297,0.0345,54.8
2.69,0.1087,-0.0158,0.1387,0.0345,54.8
2.691,0.1027,-0.0091,0.144,0.0337,55.2
2.692,0.1005,-0.0046,0.1417,0.0307,55.2
2.693,0.1005,-0.0008,0.1312,0.0315,55.5
2.694,0.1005,0.0045,0.1215,0.0322,55.7
2.695,0.1087,0.0075,0.111,0.0382,55.9
2.696,0.12,0.0105,0.1042,0.0412,55.9
2.697,0.1192,0.0097,0.105,0.0427,56.1
2.698,0.1065,0.0097,0.1042,0.042,56.4
2.699,0.105,0.009,0.099,0.0382,56.5
2.7,0.1065,0.0097,0.0862,0.0337,56.8
2.701,0.099,0.012,0.0765,0.0322,56.9
2.702,0.0877,0.0135,0.069,0.0322,57.1
2.703,0.087,0.0202,0.057,0.0277,57.2
2.704,0.0892,0.0315,0.0465,0.027,57.4
2.705,0.0735,0.0472,0.0352,0.0292,57.6
2.706,0.0472,0.0607,0.0292,0.0352,57.7
2.707,0.0112,0.0705,0.021,0.039,58.0
2.708,-0.0195,0.0727,0.009,0.0382,57.8
2.709,-0.042,0.072,-0.0158,0.0345,58.1
2.71,-0.0638,0.072,-0.048,0.024,58.4
2.711,-0.0706,0.0652,-0.081,0.0142,58.2
2.712,-0.0533,0.057,-0.1215,0.0075,58.4
2.713,-0.027,0.0465,-0.1688,0.0007,58.3
2.714,-0.0195,0.0367,-0.2138,-0.0008,58.6
2.715,-0.0181,0.0277,-0.261,-0.0015,58.7
2.716,-0.012,0.018,-0.309,-0.0046,59.0
2.717,-0.0053,0.0082,-0.3421,-0.0083,58.9
2.718,-0.0105,0.0007,-0.3023,-0.012,59.2
2.719,-0.012,-0.0083,-0.1553,-0.015,59.0
2.72,-0.0015,-0.0181,0.0315,-0.0158,59.4
2.721,0.0202,-0.0256,0.2032,-0.0128,59.2
2.722,0.0405,-0.033,0.3465,-0.0105,59.5
2.723,0.045,-0.0375,0.4597,-0.0098,59.4
2.724,0.0427,-0.0413,0.531,-0.0083,59.6
2.725,0.0112,-0.0428,0.5295,-0.0053,59.6
2.726,-0.0278,-0.0405,0.4935,0.0007,59.7
2.727,-0.039,-0.0383,0.42,0.0045,59.7
2.728,-0.0375,-0.0346,0.3082,0.009,59.8
2.729,-0.027,-0.03,0.1995,0.0157,59.8
2.73,0.0277,-0.0263,0.1072,0.0195,59.8
2.731,0.117,-0.024,0.048,0.0217,59.9
2.732,0.1725,-0.024,0.0082,0.024,60.1
2.733,0.1747,-0.021,-0.024,0.0262,59.9
2.734,0.1642,-0.0195,-0.057,0.0232,60.2
2.735,0.1537,-0.0181,-0.0938,0.0217,59.9
2.736,0.1267,-0.0165,-0.1268,0.0202,60.3
2.737,0.0997,-0.0135,-0.153,0.0165,60.0
2.738,0.0787,-0.012,-0.1635,0.0105,60.4
2.739,0.0352,-0.0098,-0.1748,0.0052,60.1
2.74,-0.0083,-0.0068,-0.2003,0.0052,60.5
2.741,-0.0315,0.0007,-0.2475,0.0082,60.3
2.742,-0.054,0.006,-0.3218,0.012,60.3
2.743,-0.0945,0.009,-0.3998,0.0127,60.3
2.744,-0.1215,0.0112,-0.4658,0.012,60.2
2.745,-0.1298,0.0105,-0.5078,0.0105,60.4
2.746,-0.1628,0.0127,-0.519,0.0045,60.2
2.747,-0.1673,0.009,-0.495,-0.0023,60.6
2.748,-0.1335,0.006,-0.441,-0.006,60.3
2.749,-0.0728,0.0052,-0.3743,-0.0105,60.7
2.75,-0.0128,0.0052,-0.2955,-0.0143,60.5
2.751,0.003,0.0082,-0.2205,-0.0143,60.5
2.752,0.009,0.0097,-0.1553,-0.0128,60.5
2.753,-0.0023,0.0142,-0.0968,-0.0143,60.6
2.754,-0.0068,0.018,-0.0436,-0.0188,60.8
2.755,-0.0015,0.0232,0.0015,-0.0203,60.7
2.756,-0.0091,0.0255,0.0322,-0.0233,60.7
2.757,-0.0233,0.0232,0.0532,-0.0263,60.6
2.758,-0.0436,0.0195,0.0705,-0.0248,60.9
2.759,-0.0638,0.0165,0.09,-0.0218,60.8
2.76,-0.0893,0.0135,0.1117,-0.0203,60.7
2.761,-0.096,0.0097,0.1357,-0.0158,60.6
2.762,-0.0863,0.0082,0.1597,-0.0105,60.8
2.763,-0.0885,0.0067,0.1785,-0.0083,60.9
2.764,-0.081,0.009,0.186,-0.006,60.7
2.765,-0.0968,0.0105,0.1807,-0.003,60.8
2.766,-0.0975,0.0082,0.1642,0.003,60.7
2.767,-0.0398,0.0045,0.1387,0.0105,60.8
2.768,-0.0165,0.0,0.1125,0.0165,60.8
2.769,-0.0638,-0.0083,0.0877,0.0255,61.1
2.77,-0.0856,-0.0158,0.0682,0.033,60.8
2.771,-0.0375,-0.0181,0.0495,0.0345,60.8
2.772,-0.0346,-0.0195,0.0285,0.0352,60.9
2.773,-0.0015,-0.0225,0.0142,0.039,60.9
2.774,0.0427,-0.0256,0.0037,0.0412,61.1
2.775,-0.0105,-0.0256,-0.0046,0.042,60.9
2.776,-0.0038,-0.0256,-0.0053,0.0382,61.1
2.777,0.0255,-0.027,-0.0015,0.0307,61.1
2.778,0.042,-0.03,0.0052,0.0202,60.9
2.779,0.045,-0.0346,0.0165,0.0015,61.0
2.78,0.009,-0.0361,0.027,-0.0233,60.9
2.781,-0.006,-0.039,0.0307,-0.0465,61.0
2.782,-0.0165,-0.0405,0.0367,-0.0668,60.7
2.783,0.0067,-0.039,0.0442,-0.0856,61.0
2.784,0.0532,-0.0368,0.0517,-0.0953,60.8
2.785,0.075,-0.0323,0.0637,-0.0945,61.0
2.786,0.084,-0.0218,0.075,-0.0953,60.7
2.787,0.0862,-0.012,0.0855,-0.1021,60.8
2.788,0.0615,-0.0195,0.0967,-0.105,60.6
2.789,0.0825,-0.0315,0.111,-0.108,60.8
2.79,0.162,-0.0315,0.1237,-0.1335,60.6
2.791,0.195,-0.0195,0.129,-0.1411,60.5
2.792,0.1417,-0.0046,0.1297,-0.093,60.5
2.793,0.0322,0.009,0.1297,-0.0735,60.4
2.794,-0.039,0.0195,0.1215,-0.0668,60.3
2.795,-0.0653,0.0255,0.1117,-0.0428,60.3
2.796,-0.0833,0.0292,0.1005,-0.039,60.3
2.797,-0.1103,0.0315,0.0825,-0.0181,60.3
2.798,-0.129,0.0315,0.0622,-0.0091,60.0
2.799,-0.1328,0.0322,0.039,-0.0008,60.0
2.8,-0.1583,0.0322,0.018,0.015,59.9
2.801,-0.1845,0.03,-0.0023,0.027,59.8
2.802,-0.1943,0.0277,-0.0218,0.0442,59.6
2.803,-0.1883,0.024,-0.0346,0.054,59.8
2.804,-0.1808,0.021,-0.042,0.0637,59.4
2.805,-0.1928,0.018,-0.0458,0.057,59.5
2.806,-0.2235,0.015,-0.0436,0.0532,59.2
2.807,-0.2235,0.015,-0.0368,0.0675,59.1
2.808,-0.1913,0.0157,-0.0338,0.0667,59.0
2.809,-0.1688,0.0217,-0.0353,0.0615,59.0
2.81,-0.132,0.027,-0.0346,0.0615,59.1
2.811,-0.0623,0.0292,-0.0383,0.063,58.7
2.812,-0.0015,0.0315,-0.0383,0.0585,58.8
2.813,0.039,0.03,-0.0405,0.0502,58.5
2.814,0.0825,0.0277,-0.0428,0.0465,58.5
2.815,0.1252,0.0255,-0.039,0.042,58.2
2.816,0.1552,0.0247,-0.0383,0.0412,58.2
2.817,0.1702,0.0277,-0.0346,0.042,58.1
2.818,0.183,0.0292,-0.0308,0.0277,58.0
2.819,0.2047,0.0307,-0.0256,0.0007,57.9
2.82,0.2122,0.0322,-0.0225,-0.012,57.6
2.821,0.2047,0.0322,-0.0195,-0.0135,57.6
2.822,0.1845,0.03,-0.0158,-0.021,57.4
2.823,0.1477,0.0285,-0.0143,-0.0083,57.3
2.824,0.108,0.018,-0.0105,0.0607,57.1
2.825,0.0892,0.0052,-0.0105,0.117,57.0
2.826,0.0742,0.0015,-0.012,0.0697,56.8
2.827,0.0352,-0.0068,-0.0128,0.018,56.6
2.828,0.0232,-0.0165,-0.0158,0.003,56.6
2.829,0.0202,-0.024,-0.0165,-0.0203,56.3
2.83,0.009,-0.0323,-0.0165,-0.0195,56.3
2.831,0.0165,-0.039,-0.0128,-0.0233,56.2
2.832,0.0165,-0.0428,-0.0105,-0.0225,55.9
2.833,0.0232,-0.0428,-0.0083,-0.0188,55.8
2.834,0.0352,-0.0428,-0.0068,-0.0218,55.7
2.835,0.0262,-0.042,-0.0091,-0.0218,55.5
2.836,0.0015,-0.0436,-0.012,-0.0248,55.2
2.837,-0.0083,-0.042,-0.0188,-0.0225,55.3
2.838,-0.0181,-0.039,-0.024,-0.0256,55.1
2.839,-0.0353,-0.0405,-0.0256,-0.0293,54.9
2.84,-0.0578,-0.0443,-0.0278,-0.0293,54.6
2.841,-0.0825,-0.0503,-0.0293,-0.0315,54.6
2.842,-0.0915,-0.0578,-0.03,-0.03,54.5
2.843,-0.0975,-0.063,-0.0323,-0.0248,54.1
2.844,-0.0945,-0.0638,-0.0375,-0.0165,54.0
2.845,-0.1013,-0.063,-0.042,-0.0135,53.8
2.846,-0.1073,-0.0608,-0.0436,-0.0143,54.0
2.847,-0.1095,-0.0555,-0.0413,-0.012,53.4
2.848,-0.1155,-0.0511,-0.0346,-0.0098,53.4
2.849,-0.1073,-0.042,-0.0263,-0.0053,53.1
2.85,-0.0998,-0.0323,-0.0158,-0.0015,53.2
2.851,-0.0908,-0.0218,-0.0023,0.0007,52.8
2.852,-0.0698,-0.0105,0.006,0.0052,52.6
2.853,-0.0413,-0.0008,0.0112,0.0067,52.6
2.854,-0.0143,0.003,0.018,0.0067,52.3
2.855,0.0097,0.006,0.0255,0.009,52.1
2.856,0.0337,0.0105,0.0292,0.0082,52.0
2.857,0.0562,0.0112,0.0307,0.0052,51.7
2.858,0.0757,0.012,0.0367,0.003,51.4
2.859,0.099,0.0157,0.042,0.0015,51.3
2.86,0.1252,0.0202,0.0472,0.0022,51.2
2.861,0.1387,0.0277,0.051,0.0022,50.8
2.862,0.144,0.033,0.0495,0.003,50.8
2.863,0.1387,0.0352,0.048,0.003,50.5
2.864,0.1245,0.0367,0.0427,0.0015,50.4
2.865,0.108,0.0337,0.0375,0.003,50.1
2.866,0.0952,0.0307,0.033,0.0052,50.0
2.867,0.09,0.0262,0.0262,0.006,49.5
2.868,0.093,0.0232,0.0232,0.0067,49.5
2.869,0.0937,0.0232,0.021,0.0082,49.3
2.87,0.0952,0.021,0.018,0.0067,49.1
2.871,0.0967,0.021,0.0127,0.0082,48.8
2.872,0.0952,0.0195,0.0082,0.009,48.6
2.873,0.099,0.0165,0.0052,0.0082,48.4
2.874,0.0952,0.0157,0.0015,0.009,48.1
2.875,0.0802,0.0105,-0.0015,0.009,48.0
2.876,0.0817,0.006,-0.0046,0.0067,47.7
2.877,0.1027,0.003,-0.0075,0.0052,47.5
2.878,0.1005,0.0007,-0.012,0.006,47.3
2.879,0.0997,0.0015,-0.0188,0.006,47.2
2.88,0.1005,0.0045,-0.0218,0.0052,47.1
2.881,0.0877,0.0052,-0.0256,0.0052,46.7
2.882,0.0735,0.003,-0.024,0.0067,46.6
2.883,0.0525,-0.0015,-0.0188,0.006,46.2
2.884,0.0427,-0.0046,-0.0135,0.0067,46.2
2.885,0.0292,-0.0053,-0.0113,0.0067,45.7
2.886,0.0195,-0.0068,-0.0091,0.0022,45.6
2.887,0.009,-0.0068,-0.006,-0.0008,45.5
2.888,-0.003,-0.0083,-0.0046,-0.003,45.3
2.889,-0.0143,-0.0075,-0.0008,-0.006,45.1
2.89,-0.0308,-0.0046,-0.0015,-0.0068,44.7
2.891,-0.039,-0.0015,-0.0008,-0.006,44.6
2.892,-0.0473,0.0,0.0007,-0.0053,44.4
2.893,-0.0548,-0.0015,0.0052,-0.0075,44.2
2.894,-0.057,0.0022,0.0097,-0.0083,44.0
2.895,-0.0533,0.006,0.0157,-0.0091,43.6
2.896,-0.054,0.0045,0.0195,-0.0075,43.6
2.897,-0.0555,0.0015,0.0202,-0.0053,43.2
2.898,-0.057,0.0015,0.021,-0.0038,43.4
2.899,-0.0578,0.0015,0.0202,-0.0015,42.7
2.9,-0.0563,0.003,0.0232,-0.0015,42.9
2.901,-0.0518,0.0037,0.024,-0.0038,42.3
2.902,-0.0465,0.0007,0.0232,-0.0091,42.3
2.903,-0.0458,0.0045,0.0232,-0.0143,42.1
2.904,-0.0465,0.0052,0.0217,-0.012,41.8
2.905,-0.048,0.0045,0.0202,-0.015,41.7
2.906,-0.0578,0.0045,0.0195,-0.0165,41.4
2.907,-0.0668,-0.0015,0.0195,0.024,41.3
2.908,-0.0615,0.003,0.0232,0.0712,40.8
2.909,-0.0615,0.0067,0.0255,0.0472,40.9
2.91,-0.063,0.0007,0.0277,0.0165,40.5
2.911,-0.06,-0.0053,0.03,0.0172,40.5
2.912,-0.0653,-0.0038,0.03,-0.0105,40.2
2.913,-0.0623,0.003,0.0307,-0.0203,40.0
2.914,-0.054,0.009,0.0277,-0.0248,39.7
2.915,-0.0518,0.0097,0.027,-0.0293,39.5
2.916,-0.0548,-0.003,0.0262,0.0045,39.5
2.917,-0.057,-0.0113,0.024,0.015,39.0
2.918,-0.0533,-0.0128,0.0202,0.0307,38.8
2.919,-0.0533,-0.03,0.0172,0.0577,38.6
2.92,-0.042,-0.0443,0.0142,0.0232,38.5
2.921,-0.0361,-0.0315,0.0112,-0.12,38.1
2.922,-0.0315,-0.015,0.0127,-0.2168,37.9
2.923,-0.0278,0.0007,0.0142,-0.108,37.9
2.924,-0.0346,0.0075,0.009,0.0375,37.5
2.925,-0.042,-0.0135,0.0,0.0997,37.5
2.926,-0.039,-0.0278,-0.0053,0.0967,37.0
2.927,-0.0308,-0.0256,-0.006,0.0697,37.0
2.928,-0.0323,-0.0038,-0.0091,0.066,36.6
2.929,-0.0293,0.0157,-0.0135,0.0877,36.5
2.93,-0.0225,0.0127,-0.0143,-0.0053,36.2
2.931,-0.0158,0.021,-0.0181,-0.1155,36.0
2.932,-0.0053,0.0217,-0.0218,-0.0195,35.9
2.933,0.0052,0.0352,-0.0285,0.0052,35.5
2.934,0.0217,0.0742,-0.0315,0.0052,35.3
2.935,0.0345,0.0727,-0.0256,-0.0158,35.1
2.936,0.042,0.0405,-0.0285,-0.1373,34.7
2.937,0.0465,0.0202,-0.0323,-0.1065,34.6
2.938,0.0465,0.0082,-0.0315,-0.1283,34.3
2.939,0.0502,0.0015,-0.0315,-0.198,34.2
2.94,0.051,-0.0135,-0.0346,-0.1365,33.9
2.941,0.0585,-0.0428,-0.0368,0.1087,33.8
2.942,0.0652,-0.0623,-0.0383,0.2325,33.5
2.943,0.069,-0.0668,-0.0443,0.1237,33.3
2.944,0.0712,-0.045,-0.0503,0.135,33.0
2.945,0.072,0.0067,-0.0563,0.0337,32.8
2.946,0.075,0.027,-0.063,-0.0788,32.6
2.947,0.075,0.0412,-0.0668,-0.0015,32.4
2.948,0.0742,0.0562,-0.0668,0.069,32.3
2.949,0.0705,0.063,-0.0638,0.0577,31.8
2.95,0.069,0.1057,-0.0563,-0.039,31.6
2.951,0.0637,0.087,-0.048,-0.0181,31.4
2.952,0.057,0.048,-0.0428,0.0517,31.3
2.953,0.0502,0.003,-0.0375,0.0652,31.0
2.954,0.0457,-0.0368,-0.033,0.0097,30.7
2.955,0.0427,-0.0256,-0.027,-0.0083,30.7
2.956,0.042,-0.0323,-0.021,0.0142,30.4
2.957,0.0382,-0.0113,-0.0181,-0.0263,30.2
2.958,0.03,-0.0046,-0.0128,0.0022,29.8
2.959,0.024,-0.0053,-0.0083,-0.0128,29.8
2.96,0.0172,0.0022,-0.0015,-0.0361,29.5
2.961,0.0097,-0.0053,0.006,-0.0691,29.5
2.962,0.0015,-0.0046,0.0142,-0.063,29.1
2.963,-0.0015,-0.0128,0.0165,-0.0038,29.0
2.964,-0.003,-0.012,0.0172,-0.0323,28.7
2.965,-0.0046,-0.0165,0.0217,-0.0173,28.6
2.966,-0.0046,-0.0188,0.0255,-0.0256,28.4
2.967,-0.0068,-0.0158,0.027,-0.0353,28.2
2.968,-0.0068,-0.0143,0.0277,-0.0248,27.9
2.969,-0.0023,-0.0083,0.0315,-0.0053,27.8
2.97,0.0037,-0.0091,0.0292,0.0765,27.4
2.971,0.0067,-0.0068,0.0292,0.0892,27.5
2.972,0.0142,-0.003,0.0285,0.0202,26.9
2.973,0.0217,0.0045,0.0315,-0.0256,27.0
2.974,0.0232,0.0022,0.0345,0.009,26.5
2.975,0.0225,-0.0008,0.0322,-0.0098,26.5
2.976,0.0172,-0.0008,0.0315,-0.0368,26.2
2.977,0.009,-0.0083,0.0277,0.0015,26.2
2.978,0.0045,-0.0158,0.024,0.0285,25.8
2.979,-0.0015,-0.0233,0.0225,0.0832,25.9
2.98,-0.0105,-0.0098,0.0195,0.099,25.5
2.981,-0.0195,0.0195,0.0187,0.0885,25.5
2.982,-0.033,0.024,0.018,0.0675,25.0
2.983,-0.042,0.0307,0.0165,-0.0248,24.9
2.984,-0.0405,0.0495,0.0172,-0.219,24.7
2.985,-0.03,0.0645,0.018,-0.3135,24.4
2.986,-0.0263,0.0472,0.0187,-0.114,24.2
2.987,-0.0353,0.003,0.018,-0.0233,24.0
2.988,-0.042,-0.0233,0.0187,-0.0315,23.8
2.989,-0.0398,-0.0233,0.0127,0.0195,23.7
2.99,-0.0353,-0.0068,0.0045,-0.0083,23.4
2.991,-0.0315,-0.0105,-0.003,0.0292,23.3
2.992,-0.0233,-0.0278,-0.0068,0.051,22.9
2.993,-0.0225,-0.0158,-0.0128,0.0307,22.7
2.994,-0.0278,-0.0083,-0.0165,0.0202,22.4
2.995,-0.0368,-0.033,-0.0143,0.0232,22.4
2.996,-0.0443,-0.0308,-0.0158,0.0502,22.0
2.997,-0.045,0.0007,-0.012,0.0592,22.0
2.998,-0.0495,0.039,-0.0068,0.1005,21.7
2.999,-0.0533,0.0592,-0.0015,0.0997,21.5
3.0,-0.054,0.024,0.0045,-0.0233,21.2
3.001,-0.0615,-0.0353,0.006,-0.135,21.0
3.002,-0.0698,-0.0495,0.0082,-0.1103,20.8
3.003,-0.0683,-0.0323,0.0022,-0.0675,20.5
3.004,-0.0623,-0.054,0.003,0.0367,20.4
3.005,-0.0555,-0.0525,0.009,0.1252,20.1
3.006,-0.0443,-0.042,0.0127,0.0382,19.9
3.007,-0.027,-0.0315,0.015,-0.0675,19.6
3.008,-0.0143,-0.0105,0.018,-0.0428,19.3
3.009,0.0,0.009,0.0202,0.0922,19.3
3.01,0.009,0.0285,0.018,0.0885,18.9
3.011,0.015,0.0225,0.018,0.0442,18.8
3.012,0.0202,0.018,0.0142,-0.0315,18.4
3.013,0.0127,0.0037,0.0037,-0.1028,18.4
3.014,0.0165,-0.0015,-0.003,-0.024,18.1
3.015,0.0202,-0.012,-0.0053,0.0345,18.0
3.016,0.0165,-0.0195,-0.0091,0.0675,17.8
3.017,0.0127,-0.0068,-0.0105,0.0495,17.6
3.018,0.0045,-0.0046,-0.0091,0.0772,17.5
3.019,0.003,0.0037,-0.0105,0.0592,17.1
3.02,0.0007,-0.0015,-0.0113,0.0037,17.0
3.021,-0.0075,-0.0053,-0.0128,0.0187,16.7
3.022,-0.0158,-0.0075,-0.0113,-0.0181,16.7
3.023,-0.012,-0.012,-0.0105,-0.0046,16.4
3.024,-0.003,-0.0091,-0.0143,-0.0165,16.2
3.025,0.003,-0.0091,-0.0165,-0.0428,16.2
3.026,0.0082,-0.0068,-0.0188,-0.0473,15.7
3.027,-0.0008,-0.0128,-0.0195,-0.0353,15.9
3.028,-0.0143,-0.0218,-0.0195,0.0165,15.3
3.029,-0.0195,-0.0143,-0.0181,0.021,15.6
3.03,-0.0218,0.0007,-0.0143,0.0082,15.1
3.031,-0.0225,0.0157,-0.0128,-0.0105,15.0
3.032,-0.0256,0.0277,-0.0083,-0.012,14.7
3.033,-0.0278,0.0172,-0.006,-0.021,14.6
3.034,-0.0278,-0.024,-0.0053,-0.0195,14.4
3.035,-0.0233,-0.0653,-0.0083,-0.0143,14.0
3.036,-0.0008,-0.0638,-0.012,-0.0233,14.3
3.037,0.0225,-0.033,-0.0135,-0.012,13.9
3.038,0.0352,0.0052,-0.0143,0.015,13.9
3.039,0.0442,0.0307,-0.0165,0.0705,13.5
3.04,0.0517,0.0277,-0.0195,0.0457,13.5
3.041,0.0532,0.0075,-0.0195,-0.012,13.3
3.042,0.0345,-0.0038,-0.0158,-0.0008,13.2
3.043,0.0082,0.0247,-0.0143,-0.0008,13.0
3.044,-0.0098,0.0585,-0.0128,0.012,12.8
3.045,-0.0203,0.0547,-0.0091,0.048,12.7
3.046,-0.0315,0.0165,-0.0053,0.096,12.6
3.047,-0.0443,-0.015,0.0,0.144,12.5
3.048,-0.0638,-0.003,0.006,0.045,12.4
3.049,-0.0795,0.015,0.0127,-0.1965,12.1
3.05,-0.0893,0.009,0.0187,-0.2168,12.0
3.051,-0.0938,0.0045,0.0217,0.0172,11.8
3.052,-0.09,0.0097,0.0232,0.0832,11.7
3.053,-0.0825,-0.0075,0.0202,0.1012,11.5
3.054,-0.0683,-0.0578,0.024,0.075,11.2
3.055,-0.0443,-0.0968,0.027,-0.1553,11.0
3.056,-0.0046,-0.093,0.027,-0.3158,10.7
3.057,0.0187,-0.0728,0.0277,-0.2558,10.7
3.058,0.0202,-0.0593,0.0082,-0.0278,10.5
