Time_s,RF,BF,VM,ST,FX
0.0,-0.0023,-0.0256,0.0037,-0.0218,-4.2
0.001,-0.003,-0.0218,0.0015,-0.006,-4.2
0.002,-0.0023,-0.0113,0.0007,0.015,-4.2
0.003,-0.0008,-0.0008,0.0007,0.0352,-4.2
0.004,-0.0008,-0.0083,0.0007,0.036,-4.2
0.005,0.0007,-0.0068,0.0015,0.0142,-4.2
0.006,0.0007,-0.0046,0.003,-0.0023,-4.2
0.007,-0.0008,-0.0068,0.0052,-0.0083,-4.2
0.008,0.0007,-0.0053,0.0045,-0.0083,-4.2
0.009,0.0015,-0.0098,0.003,-0.0091,-4.2
0.01,0.0007,-0.0083,0.0045,-0.0105,-4.2
0.011,0.0015,-0.0091,0.0052,-0.0091,-4.2
0.012,0.0007,-0.006,0.0045,-0.0091,-4.2
0.013,-0.0015,-0.0053,0.0045,-0.0083,-4.2
0.014,-0.003,-0.0053,0.003,-0.0083,-4.2
0.015,-0.003,-0.0046,0.003,-0.0068,-4.2
0.016,-0.0015,-0.0023,0.0045,-0.0038,-4.2
0.017,0.0007,0.0022,0.0022,-0.0038,-4.2
0.018,0.0022,0.0,0.0022,-0.0023,-4.2
0.019,0.0037,-0.0015,0.0015,0.0007,-4.2
0.02,0.0015,-0.0015,0.0015,0.0015,-4.2
0.021,0.0015,-0.0053,0.0007,0.0015,-4.2
0.022,0.0007,-0.0046,0.0015,0.0007,-4.2
0.023,0.0015,-0.0053,0.0015,0.0007,-4.2
0.024,0.003,-0.0046,-0.0008,-0.0015,-4.2
0.025,-0.0008,0.0,-0.003,0.0015,-4.2
0.026,-0.0008,-0.0008,-0.0053,0.0015,-4.2
0.027,0.0007,-0.006,-0.006,0.0022,-4.2
0.028,-0.0015,-0.0105,-0.0053,0.003,-4.2
0.029,-0.0008,-0.006,-0.0053,0.0045,-4.2
0.03,-0.0023,0.0007,-0.0038,0.0097,-4.2
0.031,-0.0015,0.0022,-0.0046,0.0127,-4.2
0.032,-0.0015,0.0067,-0.0038,0.0142,-4.2
0.033,-0.003,0.0075,-0.0015,0.012,-4.2
0.034,-0.0008,0.0127,0.0,0.009,-4.2
0.035,0.0007,0.027,0.0,0.0112,-4.2
0.036,0.0015,0.039,0.0007,0.012,-4.2
0.037,0.003,0.0285,0.003,0.006,-4.2
0.038,0.0022,0.0112,0.0037,0.0022,-4.2
0.039,0.0007,0.006,0.003,0.0007,-4.2
0.04,-0.003,-0.0015,0.0015,0.003,-4.2
0.041,-0.0038,0.0,0.0,0.0075,-4.2
0.042,-0.003,-0.0008,-0.0008,0.003,-4.1
0.043,-0.0015,-0.0038,0.0015,0.0015,-4.1
0.044,-0.0008,-0.0046,0.0007,0.0,-4.1
0.045,-0.003,-0.0068,-0.0008,0.003,-4.1
0.046,-0.003,-0.0091,-0.0008,0.006,-4.1
0.047,-0.0023,-0.0105,-0.0008,0.006,-4.1
0.048,0.0007,-0.0053,0.0,0.0075,-4.1
0.049,0.0007,-0.0008,0.0007,0.009,-4.1
0.05,-0.0008,-0.0015,0.0007,0.009,-4.1
0.051,-0.003,-0.0023,0.0,0.0045,-4.1
0.052,-0.0046,0.0007,-0.0015,0.0015,-4.1
0.053,-0.0053,-0.0008,-0.0008,0.0007,-4.1
0.054,-0.0046,0.0,0.003,0.0015,-4.0
0.055,-0.0008,0.0037,0.0015,0.0007,-4.0
0.056,0.0,0.003,0.0022,0.0015,-4.0
0.057,-0.0008,0.0052,0.0015,0.003,-4.0
0.058,-0.003,0.003,0.0015,0.0022,-4.0
0.059,-0.0023,0.0022,0.0007,0.003,-4.0
0.06,-0.0008,0.0037,0.0007,0.003,-4.0
0.061,-0.0023,0.0015,0.0007,0.0052,-4.0
0.062,-0.0015,-0.0053,-0.0008,0.0052,-3.9
0.063,-0.0015,-0.0105,-0.0008,0.0052,-3.9
0.064,-0.0015,-0.006,0.0015,0.009,-3.9
0.065,-0.0015,-0.006,0.0007,0.009,-3.9
0.066,-0.0038,-0.0046,0.0,0.012,-3.9
0.067,-0.0046,-0.003,0.0007,0.0112,-3.9
0.068,-0.0046,-0.0023,-0.0015,0.0112,-3.9
0.069,-0.0038,-0.003,-0.0008,0.0127,-3.9
0.07,-0.003,-0.0046,0.0015,0.0105,-3.8
0.071,-0.0008,0.0022,0.003,0.0082,-3.8
0.072,0.0015,0.0015,0.0052,0.0082,-3.8
0.073,0.0022,-0.0038,0.0067,0.0067,-3.8
0.074,0.003,-0.0128,0.0067,0.0045,-3.8
0.075,0.0015,-0.021,0.0052,0.0015,-3.8
0.076,0.0015,-0.0233,0.0045,-0.0023,-3.8
0.077,-0.0008,-0.024,0.0037,-0.0046,-3.8
0.078,-0.0008,-0.0188,0.003,-0.0053,-3.7
0.079,-0.0008,-0.0158,0.0037,-0.006,-3.7
0.08,0.0007,-0.0158,0.0022,-0.0053,-3.7
0.081,0.0007,-0.0105,0.003,-0.0046,-3.7
0.082,0.0007,-0.0083,0.0022,-0.006,-3.7
0.083,0.0007,-0.0105,0.0022,-0.0083,-3.7
0.084,-0.0015,-0.0113,0.0045,-0.0068,-3.7
0.085,-0.0015,-0.0128,0.0067,-0.0083,-3.6
0.086,0.0,-0.012,0.006,-0.0053,-3.6
0.087,-0.0008,-0.0068,0.0045,-0.0068,-3.6
0.088,0.0007,-0.0053,0.0052,-0.0113,-3.6
0.089,0.0007,-0.0015,0.0052,-0.012,-3.6
0.09,0.0007,0.0007,0.0045,-0.012,-3.6
0.091,0.0015,0.0022,0.0015,-0.0091,-3.6
0.092,0.0007,0.0067,-0.0015,-0.0083,-3.6
0.093,-0.0008,0.0082,-0.0015,-0.0105,-3.5
0.094,-0.0023,0.0075,-0.0008,-0.0113,-3.5
0.095,-0.0015,0.0037,-0.0008,-0.0105,-3.5
0.096,-0.0015,0.0052,0.0,-0.0128,-3.5
0.097,-0.0046,0.0082,-0.0008,-0.0143,-3.5
0.098,-0.0023,0.009,-0.0023,-0.0113,-3.5
0.099,-0.0015,0.009,-0.003,-0.0091,-3.4
0.1,-0.0008,0.0067,-0.0008,-0.0075,-3.4
0.101,0.0,0.0022,-0.0008,-0.0091,-3.4
0.102,0.0,0.0,-0.0023,-0.0091,-3.4
0.103,0.0,0.0015,-0.0015,-0.006,-3.4
0.104,-0.0015,0.003,-0.003,-0.006,-3.4
0.105,-0.0008,0.0007,-0.0015,-0.0046,-3.4
0.106,-0.0008,0.0007,0.0,-0.0053,-3.4
0.107,0.0,0.003,-0.0008,-0.0038,-3.4
0.108,0.0007,0.0015,0.0007,-0.0046,-3.3
0.109,0.0015,0.0015,0.0015,-0.0053,-3.3
0.11,0.0022,0.0,0.0015,-0.0053,-3.3
0.111,0.0007,-0.0046,-0.0008,-0.0053,-3.3
0.112,-0.0008,-0.0068,-0.003,-0.0053,-3.3
0.113,0.0007,-0.0075,-0.003,-0.0053,-3.3
0.114,0.0,-0.0053,-0.0015,-0.0053,-3.3
0.115,0.0,-0.0046,0.0007,-0.0053,-3.3
0.116,0.0007,-0.0046,0.0,-0.0023,-3.3
0.117,0.0007,-0.0075,0.0,-0.0008,-3.3
0.118,-0.0008,-0.0038,-0.0008,-0.0023,-3.2
0.119,0.0007,0.0142,-0.0008,-0.0015,-3.2
0.12,0.0007,0.0307,0.0015,-0.0015,-3.2
0.121,0.0007,0.0187,0.0007,-0.0023,-3.2
0.122,0.0015,0.0105,0.0015,-0.0008,-3.2
0.123,0.0007,0.0127,0.0007,0.0015,-3.2
0.124,0.0007,0.0045,-0.003,0.0015,-3.2
0.125,0.0015,0.0052,-0.003,0.0015,-3.2
0.126,0.0022,0.0022,-0.0015,0.0045,-3.2
0.127,0.003,0.0015,-0.0015,0.012,-3.2
0.128,0.003,0.0015,-0.0008,0.0135,-3.2
0.129,0.0037,-0.003,-0.0015,0.012,-3.2
0.13,0.0007,0.0,-0.0008,0.0105,-3.1
0.131,0.0007,-0.0008,0.0,0.0105,-3.1
0.132,0.0037,-0.0023,0.0007,0.0112,-3.1
0.133,0.0015,-0.0046,0.0015,0.009,-3.1
0.134,0.0007,-0.0053,0.003,0.006,-3.1
0.135,0.0,-0.0068,0.0045,0.006,-3.1
0.136,-0.0008,-0.006,0.0067,0.0067,-3.1
0.137,-0.0015,-0.0023,0.006,0.0067,-3.1
0.138,-0.0015,-0.0053,0.0052,0.0067,-3.0
0.139,-0.0015,-0.006,0.0052,0.0052,-3.0
0.14,-0.003,-0.006,0.0045,0.0067,-3.0
0.141,-0.0008,-0.006,0.0045,0.0067,-3.0
0.142,-0.0008,-0.0075,0.0015,0.0037,-3.0
0.143,0.0007,-0.0105,0.0015,0.0052,-3.0
0.144,-0.0008,-0.0068,0.0007,0.0052,-3.0
0.145,-0.0015,-0.0105,0.0,0.0045,-2.9
0.146,-0.003,-0.0181,0.0007,0.006,-2.9
0.147,-0.0075,-0.0181,-0.0008,0.006,-2.9
0.148,-0.006,-0.0173,-0.0015,0.0067,-2.9
0.149,-0.0053,-0.0181,-0.0008,0.0052,-2.9
0.15,-0.0053,-0.0165,0.0022,0.0037,-2.8
0.151,-0.0053,-0.0143,0.003,0.003,-2.8
0.152,-0.0046,-0.0105,0.0015,0.0022,-2.8
0.153,-0.0015,-0.0098,0.0015,0.003,-2.8
0.154,-0.0015,-0.0083,0.0007,0.0022,-2.8
0.155,0.0,-0.0046,0.0007,0.0037,-2.8
0.156,0.0015,-0.0015,0.0007,0.0045,-2.7
0.157,0.0007,-0.0008,-0.0015,0.0052,-2.7
0.158,0.0,0.0007,-0.0008,0.0045,-2.7
0.159,-0.0015,0.003,-0.0008,-0.0015,-2.7
0.16,-0.0023,0.0052,-0.0008,-0.0015,-2.7
0.161,-0.003,0.003,-0.0015,0.0015,-2.7
0.162,-0.0046,0.0015,-0.0008,0.0015,-2.7
0.163,-0.0023,0.0015,0.0015,0.0022,-2.7
0.164,-0.0015,0.003,0.003,0.003,-2.7
0.165,-0.003,0.0067,0.003,0.0067,-2.6
0.166,-0.003,0.0082,0.003,0.0127,-2.6
0.167,-0.0038,0.0052,0.0015,0.0097,-2.6
0.168,-0.003,0.0007,0.0022,0.0052,-2.6
0.169,-0.0046,-0.003,0.0022,0.009,-2.6
0.17,-0.0046,-0.0068,0.0015,0.0195,-2.6
0.171,-0.0015,-0.0098,0.0015,0.0232,-2.6
0.172,-0.003,-0.0113,0.0015,0.0195,-2.5
0.173,-0.003,-0.0128,0.0022,0.0127,-2.5
0.174,-0.0023,-0.0075,0.003,0.0082,-2.5
0.175,-0.003,0.0045,0.0015,0.0052,-2.5
0.176,-0.0023,0.012,-0.0008,0.0037,-2.5
0.177,0.0,0.006,-0.0015,0.0037,-2.5
0.178,0.0015,0.0015,0.0,0.003,-2.5
0.179,0.0015,-0.0008,0.0007,0.0015,-2.4
0.18,0.0015,-0.0008,0.0007,0.0007,-2.4
0.181,0.0015,0.0015,0.0007,0.0015,-2.4
0.182,0.003,0.0015,0.0007,0.003,-2.4
0.183,0.0052,0.003,-0.0008,0.003,-2.4
0.184,0.003,0.0007,-0.0015,0.0015,-2.3
0.185,0.0015,-0.0008,-0.0008,0.0,-2.3
0.186,0.0015,-0.0008,0.0,0.0,-2.3
0.187,0.0015,0.0015,0.0,-0.0008,-2.3
0.188,0.0022,0.0015,0.0007,-0.0008,-2.3
0.189,0.003,0.003,0.0007,-0.0008,-2.3
0.19,0.0015,0.0075,0.0,-0.0008,-2.2
0.191,0.0007,0.0112,-0.0008,-0.0023,-2.2
0.192,0.003,0.0105,0.0,-0.0023,-2.2
0.193,0.003,0.0082,-0.0008,-0.0015,-2.2
0.194,0.003,0.0082,-0.0015,-0.003,-2.2
0.195,0.0007,0.0052,0.0,-0.0046,-2.1
0.196,0.0007,0.0037,0.0007,-0.0046,-2.1
0.197,-0.0015,0.0015,0.0015,-0.006,-2.1
0.198,-0.003,0.0015,0.0007,-0.0038,-2.1
0.199,-0.0008,0.0007,0.0045,0.0007,-2.0
0.2,-0.0008,-0.0008,0.0052,0.0045,-2.0
0.201,-0.0015,0.0007,0.0045,0.0052,-2.0
0.202,-0.0015,0.003,0.0037,0.0015,-2.0
0.203,-0.003,0.0052,0.003,0.0015,-1.9
0.204,-0.0023,0.0022,0.0037,0.0015,-1.9
0.205,-0.0008,-0.0015,0.0022,0.0015,-1.9
0.206,-0.0023,-0.0008,0.0022,0.003,-1.9
0.207,-0.003,-0.0015,0.0007,0.003,-1.9
0.208,-0.0023,-0.0046,0.0015,0.0037,-1.8
0.209,-0.003,-0.0083,0.0022,0.003,-1.8
0.21,-0.0023,-0.0091,0.0015,0.0015,-1.8
0.211,-0.0015,-0.0105,0.0015,0.0007,-1.8
0.212,-0.0008,-0.0143,0.0015,0.0015,-1.8
0.213,-0.0008,-0.0218,0.0007,0.0015,-1.7
0.214,-0.0023,-0.0256,0.0015,0.0007,-1.7
0.215,-0.0008,-0.0233,0.0007,0.0007,-1.7
0.216,-0.0008,-0.0218,0.0007,0.0015,-1.7
0.217,-0.0008,-0.0165,0.0,0.0022,-1.7
0.218,-0.0015,-0.0173,-0.0015,0.003,-1.6
0.219,-0.003,-0.0173,0.0007,0.0015,-1.6
0.22,-0.0015,-0.012,0.0,0.0015,-1.6
0.221,-0.0008,-0.0091,-0.0015,0.0007,-1.5
0.222,-0.0008,-0.0068,0.0007,0.0015,-1.5
0.223,0.0,-0.003,0.0015,0.0007,-1.5
0.224,-0.0008,0.0022,0.0007,-0.0008,-1.5
0.225,0.0007,0.003,0.0015,-0.0008,-1.4
0.226,0.0015,0.003,0.0,0.003,-1.4
0.227,-0.0015,-0.0008,0.0,0.0045,-1.4
0.228,-0.0023,-0.0023,0.0007,0.003,-1.4
0.229,-0.003,-0.0008,0.0015,0.0045,-1.4
0.23,-0.0053,-0.0015,0.0015,0.0052,-1.4
0.231,-0.0053,0.0022,0.0015,0.006,-1.3
0.232,-0.0053,0.003,0.0007,0.0045,-1.3
0.233,-0.003,0.0045,0.0007,0.0007,-1.3
0.234,0.0,0.0022,0.0015,0.0007,-1.3
0.235,0.0037,0.003,0.0015,0.0,-1.2
0.236,0.0045,0.0082,-0.003,0.0015,-1.2
0.237,0.003,0.0112,-0.0023,0.0007,-1.2
0.238,0.0045,0.012,-0.0015,-0.0008,-1.2
0.239,0.0045,0.0075,-0.0015,-0.0008,-1.2
0.24,0.0037,0.0037,-0.0008,-0.0008,-1.1
0.241,0.0007,0.003,0.0007,-0.0008,-1.1
0.242,-0.0015,0.0007,-0.0008,0.0,-1.1
0.243,-0.0038,0.0,-0.0015,-0.0008,-1.1
0.244,-0.0053,0.0022,0.0,0.0,-1.0
0.245,-0.0053,-0.0015,0.0007,-0.0008,-1.0
0.246,-0.0046,-0.0008,0.0015,-0.0015,-1.0
0.247,-0.0046,0.0007,0.0015,0.0,-1.0
0.248,-0.003,0.0,0.0007,-0.0008,-1.0
0.249,-0.0008,0.0007,0.0015,0.0,-0.9
0.25,-0.0015,0.0007,0.0045,0.003,-0.9
0.251,-0.0015,0.006,0.0045,0.0067,-0.9
0.252,-0.0008,0.0045,0.003,0.006,-0.9
0.253,-0.0015,0.003,0.0022,0.0045,-0.9
0.254,0.0007,0.0045,0.003,0.0052,-0.9
0.255,0.0015,0.003,0.0015,0.006,-0.9
0.256,0.0015,0.003,0.0007,0.0082,-0.9
0.257,0.0022,0.0007,0.003,0.0097,-0.8
0.258,0.0,-0.0008,0.003,0.009,-0.8
0.259,-0.003,-0.0023,0.0015,0.0052,-0.8
0.26,-0.003,-0.0038,-0.0008,0.0022,-0.8
0.261,-0.0008,-0.0046,-0.0015,0.0007,-0.8
0.262,-0.0008,-0.006,-0.0008,-0.0023,-0.7
0.263,-0.0008,-0.0053,0.0007,-0.0015,-0.7
0.264,-0.0008,-0.0068,0.0015,-0.003,-0.7
0.265,-0.0008,-0.0083,0.0007,-0.0046,-0.7
0.266,-0.0008,-0.0075,-0.0008,-0.003,-0.7
0.267,0.0015,-0.006,0.0045,-0.003,-0.6
0.268,0.0067,-0.006,0.0067,-0.0023,-0.6
0.269,0.0075,-0.0091,0.003,-0.0015,-0.6
0.27,0.0052,-0.0053,0.0022,0.0007,-0.6
0.271,0.0015,-0.0046,0.0,0.0007,-0.6
0.272,0.0015,-0.003,-0.0008,-0.0015,-0.5
0.273,0.0037,-0.003,-0.0008,0.0015,-0.5
0.274,0.003,-0.0008,-0.0008,0.003,-0.5
0.275,0.003,0.0022,0.0007,0.0022,-0.5
0.276,0.0015,-0.0015,0.0015,0.003,-0.5
0.277,0.0007,-0.0015,0.003,0.0015,-0.5
0.278,0.0022,0.0015,0.0037,0.0007,-0.5
0.279,-0.0008,0.003,0.0045,-0.0023,-0.4
0.28,-0.0008,0.0022,0.0022,-0.003,-0.4
0.281,-0.0008,-0.0008,0.0015,-0.0015,-0.4
0.282,0.0007,-0.0015,0.0,-0.0008,-0.4
0.283,0.003,-0.0023,0.0,0.0007,-0.4
0.284,-0.0015,-0.003,0.0007,0.0037,-0.4
0.285,-0.0008,-0.0053,0.0007,0.0045,-0.4
0.286,0.0007,-0.0068,0.0007,0.003,-0.3
0.287,-0.0015,-0.0046,-0.0015,0.0067,-0.3
0.288,-0.0046,-0.0053,-0.0008,0.0067,-0.3
0.289,-0.0083,-0.0105,-0.0015,0.0045,-0.3
0.29,-0.0083,-0.0173,-0.0008,0.0022,-0.3
0.291,-0.0053,-0.0181,0.0,-0.0008,-0.3
0.292,-0.006,-0.0143,0.0015,-0.0015,-0.3
0.293,-0.0046,-0.0143,0.0,0.0045,-0.3
0.294,-0.0046,-0.0158,-0.0015,0.006,-0.3
0.295,-0.0038,-0.0165,-0.0008,0.0015,-0.2
0.296,-0.003,-0.0128,-0.0015,-0.0008,-0.2
0.297,-0.003,-0.0105,-0.0015,0.0,-0.2
0.298,0.0007,-0.0098,-0.003,0.0015,-0.2
0.299,0.0015,-0.0068,-0.0038,0.0015,-0.2
0.3,0.0015,-0.0023,-0.0023,0.0052,-0.2
0.301,0.0015,-0.0023,-0.0015,0.0075,-0.2
0.302,0.0007,-0.003,-0.0023,0.003,-0.2
0.303,0.0015,-0.0008,-0.0008,-0.0038,-0.2
0.304,0.0,0.0015,-0.0008,-0.0015,-0.2
0.305,0.0022,0.0075,-0.0008,0.0015,-0.1
0.306,0.0052,0.003,-0.0008,0.0007,-0.1
0.307,0.0015,-0.0053,-0.0015,-0.0023,-0.1
0.308,-0.0015,-0.0091,-0.0023,-0.0015,-0.1
0.309,-0.0046,-0.012,-0.0023,-0.0015,-0.1
0.31,-0.006,-0.0091,-0.0008,-0.0023,-0.1
0.311,-0.0053,-0.0046,0.0015,-0.0015,-0.1
0.312,-0.0046,-0.0015,0.0015,0.0007,-0.1
0.313,-0.0053,0.003,0.0015,0.0,-0.1
0.314,-0.0053,0.003,0.0015,-0.0015,-0.1
0.315,-0.0038,0.0045,0.0045,0.0007,-0.1
0.316,-0.0023,0.003,0.0052,0.0007,-0.1
0.317,-0.0008,0.0045,0.0052,-0.0008,-0.1
0.318,0.0015,0.0052,0.0052,0.0007,-0.1
0.319,-0.0015,0.0045,0.0037,0.0015,-0.1
0.32,-0.0023,0.0037,0.0045,0.0022,-0.1
0.321,-0.0015,0.0,0.003,-0.0008,-0.1
0.322,-0.0015,-0.0015,0.0037,0.0007,0.0
0.323,-0.0015,0.0,0.003,0.003,0.0
0.324,-0.0046,0.0015,0.003,0.0037,0.0
0.325,-0.0046,-0.0008,0.003,0.003,0.0
0.326,-0.003,-0.0015,0.003,0.003,0.0
0.327,-0.0038,-0.003,0.0037,0.003,0.0
0.328,-0.0023,-0.0046,0.0022,0.0015,0.0
0.329,0.0,-0.0023,0.003,0.0015,0.0
0.33,0.0015,-0.003,0.0015,0.003,0.0
0.331,-0.0023,-0.006,0.003,0.003,0.0
0.332,-0.003,-0.0046,0.0045,0.0052,0.1
0.333,-0.0015,-0.0015,0.0015,0.0075,0.1
0.334,-0.0038,-0.0008,0.003,0.0082,0.1
0.335,-0.0046,0.0,0.0015,0.0067,0.1
0.336,-0.003,-0.0015,0.0022,0.0052,0.1
0.337,-0.0008,-0.0008,0.0045,0.003,0.1
0.338,-0.0008,0.003,0.0045,0.0022,0.1
0.339,-0.0023,0.003,0.0052,0.0015,0.2
0.34,-0.0046,0.003,0.003,0.0015,0.2
0.341,-0.0046,0.0045,0.0015,0.0,0.2
0.342,-0.0038,0.009,0.0007,-0.0015,0.2
0.343,-0.003,0.0112,0.0015,-0.0008,0.2
0.344,-0.0008,0.0082,0.0037,0.0,0.3
0.345,0.0022,0.0075,0.0007,0.0007,0.3
0.346,0.0022,0.0075,-0.0015,0.0007,0.3
0.347,-0.003,0.0045,-0.0015,0.0,0.4
0.348,-0.0091,0.0052,-0.0008,0.0007,0.4
0.349,-0.0143,0.0082,-0.0008,0.0045,0.4
0.35,-0.0091,0.009,-0.003,0.0052,0.4
0.351,-0.0015,0.009,-0.0015,0.0045,0.4
0.352,0.0045,0.0135,-0.0008,0.0045,0.4
0.353,0.0127,0.0157,-0.0008,0.0,0.4
0.354,0.0172,0.0052,0.0015,-0.0015,0.5
0.355,0.0187,-0.0053,0.0015,-0.0008,0.5
0.356,0.0165,-0.0091,0.0015,-0.0008,0.5
0.357,0.0142,-0.0143,0.0015,-0.0008,0.6
0.358,0.0127,-0.024,0.0015,0.0007,0.6
0.359,0.009,-0.0315,0.0007,0.0,0.6
0.36,0.0015,-0.0338,-0.0008,-0.0008,0.6
0.361,-0.0046,-0.0368,-0.0008,-0.0015,0.7
0.362,-0.0083,-0.0353,-0.0023,-0.003,0.7
0.363,-0.0098,-0.0315,-0.0023,-0.003,0.7
0.364,-0.0068,-0.027,-0.0015,-0.003,0.7
0.365,-0.0053,-0.0181,-0.0008,-0.0008,0.8
0.366,-0.0015,-0.0128,-0.0015,0.0,0.8
0.367,-0.0015,-0.0098,0.0,-0.0008,0.8
0.368,-0.0008,-0.0105,0.0,-0.0008,0.8
0.369,0.0015,-0.0091,0.0007,-0.0008,0.9
0.37,0.0,-0.0038,0.0007,0.0,0.9
0.371,0.0007,0.0015,-0.0008,0.0007,0.9
0.372,0.0022,0.0052,0.0,0.0015,0.9
0.373,0.0007,0.006,-0.0015,0.0015,0.9
0.374,0.003,0.0067,-0.0015,0.0015,1.0
0.375,0.0015,0.0082,-0.0008,0.0037,1.0
0.376,0.0007,0.0105,0.0007,0.0045,1.0
0.377,0.003,0.0127,0.0015,0.0022,1.0
0.378,0.0,0.0195,0.003,0.0037,1.1
0.379,-0.0015,0.0232,0.0037,0.0037,1.1
0.38,-0.003,0.0142,0.003,0.0015,1.1
0.381,-0.0046,0.0045,0.0037,0.0,1.2
0.382,-0.0046,-0.0038,0.0037,-0.0008,1.2
0.383,-0.0053,-0.0098,0.0015,0.0,1.2
0.384,-0.003,-0.0113,0.003,-0.0008,1.3
0.385,-0.0008,-0.0143,0.006,-0.0023,1.3
0.386,-0.0008,-0.0105,0.0045,-0.0015,1.3
0.387,0.0007,-0.0038,0.003,-0.0015,1.3
0.388,0.0015,-0.0008,0.0015,-0.0008,1.4
0.389,0.0007,0.0015,-0.0008,0.0022,1.4
0.39,0.0007,0.0007,0.0007,0.003,1.5
0.391,-0.0023,0.0015,0.0015,0.003,1.5
0.392,-0.0075,0.0067,0.0037,0.0015,1.5
0.393,-0.0113,0.018,0.003,0.003,1.6
0.394,-0.0091,0.0217,0.003,0.003,1.6
0.395,-0.0015,0.0105,0.003,0.0007,1.6
0.396,0.0037,0.0015,0.0045,0.0015,1.7
0.397,0.0082,-0.0105,0.003,0.0022,1.7
0.398,0.006,-0.024,-0.0008,0.0022,1.7
0.399,-0.006,-0.0256,-0.003,0.003,1.8
0.4,-0.0128,-0.0105,-0.0038,0.0037,1.8
0.401,-0.0008,-0.0038,-0.0046,0.0045,1.8
0.402,0.006,-0.0053,-0.0046,0.0067,1.9
0.403,0.0105,0.0135,-0.0038,0.0075,1.9
0.404,0.0165,0.0202,-0.003,0.006,2.0
0.405,0.0157,0.0165,-0.003,0.006,2.0
0.406,0.0142,0.018,-0.0015,0.0045,2.0
0.407,0.0082,0.0105,0.0,0.0022,2.1
0.408,0.006,0.009,0.0007,0.0,2.1
0.409,0.003,0.0075,0.0,0.0,2.2
0.41,-0.006,0.0082,0.0,0.003,2.2
0.411,-0.0105,0.0052,0.0022,0.0045,2.2
0.412,-0.0165,0.0007,0.0037,0.0015,2.3
0.413,-0.0181,0.0007,0.0015,-0.003,2.3
0.414,-0.0181,-0.0015,0.0007,-0.003,2.4
0.415,-0.0143,-0.0023,0.0022,-0.0038,2.4
0.416,-0.012,-0.0008,0.0022,-0.003,2.4
0.417,-0.0113,0.0045,0.0015,-0.0038,2.5
0.418,-0.0046,0.0075,0.0007,-0.003,2.5
0.419,-0.003,0.0127,0.0007,-0.0046,2.6
0.42,-0.0038,0.0165,-0.0008,0.0045,2.6
0.421,-0.0023,0.0075,-0.003,0.0105,2.6
0.422,-0.003,-0.0015,-0.0015,0.006,2.7
0.423,-0.003,-0.006,-0.0008,0.0067,2.7
0.424,-0.0008,-0.0091,0.0007,0.006,2.8
0.425,0.0007,-0.0105,0.0007,0.006,2.9
0.426,0.003,-0.0083,-0.0008,0.006,2.9
0.427,0.0037,-0.0075,-0.0038,0.0037,3.0
0.428,0.0045,-0.0105,-0.003,-0.0008,3.0
0.429,0.0052,-0.0083,-0.0015,0.0007,3.1
0.43,0.0045,-0.0008,-0.0015,0.0007,3.1
0.431,0.0052,-0.0053,0.0007,0.0015,3.2
0.432,0.0045,-0.0158,0.0,0.0015,3.2
0.433,0.003,-0.0248,0.0015,0.0015,3.3
0.434,0.0015,-0.033,0.0015,0.0052,3.3
0.435,0.0007,-0.0308,0.0007,0.0067,3.4
0.436,0.0015,-0.0218,0.003,0.0067,3.4
0.437,0.0015,-0.0181,0.0007,0.0052,3.5
0.438,0.0,-0.0158,0.0015,0.0045,3.6
0.439,-0.0015,-0.0128,0.0007,0.006,3.6
0.44,-0.0023,-0.0128,0.0022,0.0022,3.6
0.441,-0.0015,-0.0075,0.0037,-0.0038,3.7
0.442,-0.0023,-0.0053,0.0007,-0.006,3.8
0.443,-0.003,-0.0075,0.0015,-0.0068,3.8
0.444,-0.003,-0.006,0.0015,-0.0128,3.9
0.445,-0.0023,-0.0068,0.0007,-0.0143,4.0
0.446,-0.0015,-0.0008,0.0007,-0.0068,4.0
0.447,-0.003,0.003,0.0015,0.0007,4.1
0.448,-0.0023,0.0082,0.003,0.012,4.2
0.449,-0.0015,0.0105,0.0037,0.0195,4.2
0.45,-0.003,0.009,0.0052,0.0082,4.3
0.451,-0.003,0.0105,0.0045,-0.0008,4.4
0.452,0.0007,0.0082,0.003,0.006,4.5
0.453,0.0,0.0037,0.0022,0.0142,4.5
0.454,-0.0015,0.0015,0.003,0.0217,4.6
0.455,-0.0015,-0.0008,0.003,0.012,4.7
0.456,-0.0038,-0.0091,0.0015,-0.0218,4.7
0.457,-0.0046,-0.012,0.0015,-0.0443,4.8
0.458,-0.0053,-0.0105,0.0022,-0.0375,4.9
0.459,-0.0038,-0.0098,0.0022,-0.0278,4.9
0.46,-0.0008,-0.0053,0.003,-0.0256,5.0
0.461,0.0022,-0.0091,0.003,-0.0083,5.1
0.462,0.0015,-0.0068,0.0015,0.0075,5.1
0.463,0.0007,0.0292,-0.0008,0.015,5.2
0.464,0.0015,0.0952,-0.0008,0.0225,5.3
0.465,0.0022,0.099,-0.0015,0.0315,5.3
0.466,0.0037,0.0307,-0.0008,0.057,5.4
0.467,0.0045,0.0112,0.0007,0.0765,5.5
0.468,0.0037,-0.006,-0.0015,0.0435,5.6
0.469,0.0015,-0.0443,-0.0023,-0.0188,5.7
0.47,0.003,-0.048,-0.0015,-0.0623,5.8
0.471,0.003,-0.0443,-0.0015,-0.0691,5.8
0.472,0.003,-0.0218,0.0,-0.042,5.9
0.473,0.003,-0.012,0.0007,-0.003,5.9
0.474,0.0007,-0.0083,0.0007,0.0292,6.0
0.475,0.0,0.0337,0.0015,0.0525,6.1
0.476,0.0007,0.066,0.003,0.0637,6.2
0.477,0.003,0.051,0.0045,0.066,6.3
0.478,0.003,0.0142,0.003,0.0562,6.3
0.479,-0.0008,-0.0165,0.003,0.0105,6.4
0.48,-0.0023,-0.0293,0.0022,-0.0315,6.5
0.481,-0.0015,-0.0315,0.0007,-0.0346,6.6
0.482,-0.003,-0.0346,0.0007,-0.0278,6.7
0.483,-0.0038,-0.0278,0.0015,-0.0225,6.7
0.484,-0.0038,-0.0256,0.0015,-0.0068,6.8
0.485,-0.0038,-0.0233,0.0015,0.003,6.9
0.486,-0.0038,-0.0195,0.0022,-0.0053,7.0
0.487,-0.003,-0.0128,0.0037,-0.0436,7.1
0.488,-0.003,-0.0023,0.0007,-0.0765,7.2
0.489,-0.003,0.015,-0.0008,-0.0878,7.2
0.49,-0.0015,0.018,0.0015,-0.1013,7.3
0.491,-0.0015,-0.0015,0.0007,-0.0691,7.4
0.492,-0.0015,-0.0091,0.0007,-0.0135,7.5
0.493,-0.003,-0.0143,0.0015,0.024,7.6
0.494,-0.0038,-0.0165,0.003,0.0382,7.7
0.495,-0.0008,-0.0128,0.0052,0.0412,7.8
0.496,0.0007,-0.0128,0.0045,0.0817,7.8
0.497,-0.0015,-0.0068,0.003,0.1192,7.9
0.498,-0.0038,0.0007,0.0037,0.1222,8.0
0.499,-0.0023,0.0037,0.0045,0.0945,8.1
0.5,-0.0015,-0.003,0.0052,0.0682,8.2
0.501,-0.0015,-0.012,0.003,0.039,8.3
0.502,-0.003,-0.0293,0.0022,0.009,8.4
0.503,-0.0046,-0.0458,0.003,0.0442,8.5
0.504,-0.0023,-0.0428,0.0022,0.0772,8.6
0.505,0.0007,-0.0278,0.0037,0.048,8.8
0.506,0.0007,-0.0188,0.0015,-0.0068,8.9
0.507,-0.0008,-0.012,0.003,-0.0203,9.0
0.508,-0.0008,-0.006,0.0015,-0.0405,9.1
0.509,0.0007,-0.003,0.0,-0.0683,9.2
0.51,0.0022,0.0315,0.0015,-0.0668,9.3
0.511,0.0022,0.0712,0.0,-0.0743,9.4
0.512,-0.0008,0.054,-0.0015,-0.0578,9.5
0.513,-0.003,-0.0105,-0.003,-0.0436,9.6
0.514,-0.0053,-0.0308,-0.0068,-0.0091,9.8
0.515,-0.006,-0.0075,-0.0091,0.0225,9.9
0.516,-0.003,-0.0053,-0.0083,0.0315,10.0
0.517,-0.0046,-0.0068,-0.0068,0.0555,10.1
0.518,-0.0053,-0.0256,-0.0068,0.054,10.2
0.519,-0.006,-0.0525,-0.0075,0.0337,10.3
0.52,-0.0075,-0.0218,-0.0075,0.0142,10.4
0.521,-0.006,0.0195,-0.0068,-0.012,10.6
0.522,-0.0053,0.018,-0.0015,-0.0368,10.7
0.523,-0.006,-0.0023,0.0,-0.03,10.9
0.524,-0.0083,0.003,-0.0015,-0.0443,11.0
0.525,-0.0046,0.0262,0.0015,-0.0691,11.2
0.526,-0.0015,0.072,0.0045,-0.0608,11.3
0.527,0.0015,0.1185,0.0067,-0.024,11.5
0.528,0.0052,0.075,0.009,-0.003,11.6
0.529,0.0075,0.0082,0.0067,-0.0008,11.7
0.53,0.006,-0.0075,0.0045,-0.0008,11.9
0.531,0.0045,-0.024,0.0045,0.018,12.1
0.532,0.003,-0.0338,0.0037,0.0622,12.2
0.533,0.0022,-0.0346,0.003,0.0457,12.3
0.534,0.0007,-0.0308,0.0015,-0.0143,12.5
0.535,-0.0008,-0.0091,0.0015,-0.0181,12.6
0.536,-0.0008,0.0172,0.0022,0.0015,12.8
0.537,0.0015,0.0255,0.0015,-0.0105,12.9
0.538,0.0015,-0.0053,0.0015,-0.0046,13.0
0.539,0.0007,-0.0143,0.0007,0.0067,13.2
0.54,-0.0008,-0.0158,0.0015,0.0195,13.4
0.541,-0.0015,-0.0195,0.0015,0.0367,13.5
0.542,-0.0008,-0.015,0.0007,0.0525,13.7
0.543,0.0007,-0.0188,0.0022,0.0405,13.9
0.544,0.0,-0.0128,0.003,-0.003,14.1
0.545,0.0,-0.0053,0.0037,-0.0143,14.3
0.546,-0.0015,0.018,0.003,-0.0128,14.4
0.547,-0.0008,0.0322,0.0037,-0.0181,14.6
0.548,0.0,0.0232,0.0045,-0.0188,14.8
0.549,-0.0008,0.0075,0.0037,-0.0188,15.0
0.55,0.0007,0.0,0.003,-0.015,15.2
0.551,-0.0008,-0.0046,0.0015,-0.0075,15.3
0.552,-0.0008,-0.0068,-0.0008,0.0037,15.5
0.553,0.0007,0.0007,0.0,0.0067,15.7
0.554,0.0007,0.0045,0.0022,0.0007,15.8
0.555,0.0015,0.009,0.0022,-0.0023,16.0
0.556,0.003,0.0157,0.0,-0.0015,16.2
0.557,0.0067,0.0165,0.0,-0.0046,16.4
0.558,0.0067,0.0082,-0.0008,-0.0068,16.6
0.559,0.0045,-0.0008,-0.0008,-0.0046,16.7
0.56,0.003,-0.0091,0.003,-0.0046,16.9
0.561,0.0037,-0.0143,0.0045,-0.0038,17.1
0.562,0.0007,-0.0128,0.003,-0.0068,17.3
0.563,-0.0008,-0.0143,0.0007,-0.0075,17.5
0.564,-0.0015,-0.0165,0.0007,-0.0053,17.7
0.565,-0.0023,-0.0195,0.0007,-0.012,17.9
0.566,-0.0015,-0.0173,0.0007,-0.0188,18.0
0.567,-0.0008,-0.0143,0.0015,-0.0188,18.2
0.568,-0.0015,-0.0165,-0.0008,-0.0128,18.4
0.569,-0.0023,-0.021,0.0015,-0.0046,18.6
0.57,-0.003,-0.0218,0.0022,-0.0075,18.8
0.571,-0.003,-0.0165,-0.0015,-0.0053,19.0
0.572,-0.003,-0.0128,-0.003,0.0015,19.2
0.573,-0.0038,-0.0188,-0.006,0.0045,19.4
0.574,-0.0038,-0.027,-0.0068,0.0075,19.6
0.575,-0.0046,-0.0256,-0.006,0.018,19.8
0.576,-0.0038,-0.0203,-0.0053,0.0375,19.9
0.577,-0.0046,-0.0188,-0.0046,0.039,20.1
0.578,-0.0068,-0.024,-0.0068,0.0217,20.3
0.579,-0.0053,-0.033,-0.0068,0.012,20.5
0.58,-0.0053,-0.0361,-0.0046,0.0112,20.7
0.581,-0.0023,-0.033,-0.0053,0.0052,20.9
0.582,-0.0015,-0.0285,-0.0038,0.0022,21.1
0.583,-0.0008,-0.0233,-0.003,0.0037,21.3
0.584,-0.0008,-0.012,-0.0015,0.0067,21.5
0.585,-0.0015,-0.006,0.0007,0.0105,21.7
0.586,0.0007,-0.0015,0.0,0.0105,21.9
0.587,0.0007,0.0015,-0.0015,0.0067,22.1
0.588,0.0,0.0037,-0.0023,0.0015,22.3
0.589,0.0,0.0045,-0.003,0.0015,22.5
0.59,-0.0008,0.003,-0.0008,0.0007,22.7
0.591,-0.0008,0.0037,-0.0023,-0.0008,22.9
0.592,-0.003,0.0052,-0.003,0.0,23.1
0.593,-0.003,0.012,-0.0015,-0.0023,23.3
0.594,-0.0053,0.0187,-0.003,0.0,23.5
0.595,-0.0038,0.0217,-0.0023,0.0022,23.8
0.596,-0.0008,0.027,-0.0023,-0.0015,23.9
0.597,0.0,0.0322,-0.0008,0.0015,24.2
0.598,0.0045,0.0345,0.0007,0.0,24.3
0.599,0.0067,0.0397,0.006,0.0,24.5
0.6,0.009,0.0487,0.0075,0.0015,24.7
0.601,0.0067,0.0487,0.0045,0.0015,25.0
0.602,0.0067,0.0405,0.0045,0.0052,25.2
0.603,0.009,0.0322,0.0052,0.0045,25.4
0.604,0.0067,0.0262,0.003,0.0015,25.6
0.605,0.0052,0.0165,0.0022,0.0007,25.8
0.606,0.0052,0.009,0.0022,-0.0008,26.1
0.607,0.0045,0.0022,0.0015,-0.0008,26.2
0.608,0.0045,-0.006,0.0022,0.0007,26.5
0.609,0.003,-0.0091,0.0037,0.0015,26.7
0.61,0.0015,-0.012,0.003,0.0007,26.9
0.611,0.0,-0.0135,0.0015,-0.0008,27.1
0.612,-0.0038,-0.0143,0.003,-0.0008,27.3
0.613,-0.0053,-0.0158,0.0045,-0.0015,27.5
0.614,-0.0083,-0.0143,0.0015,-0.0015,27.7
0.615,-0.0091,-0.0091,0.0007,-0.003,27.9
0.616,-0.0083,-0.0008,0.0007,-0.0015,28.2
0.617,-0.0068,0.006,0.0015,0.0045,28.4
0.618,-0.0046,0.009,0.003,0.0105,28.6
0.619,-0.003,0.0045,0.0045,0.012,28.8
0.62,-0.003,-0.0008,0.0022,0.0105,29.0
0.621,-0.0023,-0.0015,0.0022,0.0082,29.2
0.622,-0.0015,-0.0053,0.0015,0.0052,29.4
0.623,-0.0015,-0.0083,0.0015,0.0052,29.7
0.624,-0.0023,-0.0015,0.0022,0.003,29.9
0.625,-0.0023,-0.0008,0.0007,0.0015,30.1
0.626,-0.0008,-0.0038,0.0007,-0.0015,30.3
0.627,-0.0015,-0.0053,0.0,-0.0038,30.5
0.628,-0.003,-0.0068,-0.0008,-0.0053,30.7
0.629,-0.0015,-0.0091,0.0015,-0.0068,30.9
0.63,0.0,-0.012,0.0015,-0.0053,31.1
0.631,-0.0008,-0.012,0.0015,-0.0068,31.4
0.632,-0.0008,-0.0105,0.0022,-0.0046,31.5
0.633,-0.003,-0.0105,-0.0008,-0.0068,31.8
0.634,-0.0046,-0.012,-0.0015,-0.006,32.0
0.635,-0.0046,-0.0098,-0.0015,-0.006,32.2
0.636,-0.0053,-0.0075,-0.0046,-0.0068,32.4
0.637,-0.0046,-0.0046,-0.0046,-0.0038,32.6
0.638,-0.0046,0.0015,-0.0038,-0.0046,32.8
0.639,-0.003,0.0082,-0.003,-0.0015,33.0
0.64,0.0015,0.0067,-0.0015,0.0037,33.3
0.641,0.0045,-0.0038,-0.0015,0.0052,33.4
0.642,0.0052,-0.0098,-0.0015,0.0075,33.7
0.643,0.0052,-0.0128,-0.0008,0.0067,33.8
0.644,0.003,-0.0158,0.0015,0.0052,34.1
0.645,0.0007,-0.0165,0.0,0.006,34.3
0.646,0.0,-0.0188,0.0015,0.0067,34.5
0.647,-0.003,-0.0203,0.0037,0.0052,34.7
0.648,-0.003,-0.0225,0.0067,0.0067,34.9
0.649,-0.0008,-0.027,0.0075,0.0067,35.1
0.65,-0.0008,-0.0218,0.0082,0.006,35.3
0.651,-0.003,-0.0135,0.0097,0.006,35.5
0.652,-0.0008,-0.0083,0.0082,0.003,35.7
0.653,0.0,-0.0023,0.0052,0.0015,35.9
0.654,-0.0008,-0.0053,0.0067,0.0015,36.1
0.655,0.0007,-0.0075,0.0045,-0.0008,36.3
0.656,-0.0008,-0.0105,0.0045,-0.0008,36.5
0.657,-0.0015,-0.0128,0.0052,-0.0023,36.7
0.658,-0.0015,-0.0068,0.0052,0.0,36.9
0.659,-0.0015,-0.0015,0.0052,0.003,37.1
0.66,-0.003,0.003,0.0045,0.003,37.3
0.661,-0.003,0.0022,0.0045,0.0015,37.5
0.662,-0.0023,-0.0008,0.0045,0.0007,37.7
0.663,-0.003,-0.0008,0.0045,-0.0015,37.9
0.664,-0.0015,0.0082,0.0052,-0.003,38.1
0.665,-0.003,0.0232,0.0052,-0.0015,38.2
0.666,-0.0038,0.0255,0.0052,-0.0015,38.4
0.667,-0.0015,0.021,0.0037,0.0015,38.6
0.668,-0.0008,0.012,0.0015,0.003,38.8
0.669,0.0007,0.0022,-0.0015,0.0015,39.0
0.67,-0.0015,-0.0046,-0.003,-0.0015,39.2
0.671,-0.0023,-0.0068,-0.0008,-0.0023,39.4
0.672,-0.0008,-0.006,-0.0015,-0.0023,39.6
0.673,0.0007,-0.0068,0.0,-0.003,39.8
0.674,0.0007,-0.003,0.0022,-0.0008,40.0
0.675,0.0015,0.0007,0.0015,0.0007,40.2
0.676,0.0015,-0.003,0.0,0.0,40.4
0.677,0.0007,-0.0068,0.0007,-0.0015,40.5
0.678,0.0015,-0.0091,0.0015,-0.0046,40.7
0.679,0.0007,-0.012,0.0,-0.0038,40.9
0.68,0.0015,-0.0068,0.0,-0.0008,41.1
0.681,0.0022,0.003,-0.0015,-0.0008,41.3
0.682,0.0,0.0135,-0.0023,-0.003,41.5
0.683,-0.0015,0.0232,-0.0008,-0.0015,41.7
0.684,-0.0008,0.0262,-0.0008,0.0015,41.8
0.685,0.0007,0.0232,-0.0008,0.0,42.0
0.686,0.0015,0.024,-0.0015,0.0007,42.2
0.687,0.0015,0.0232,0.0007,0.003,42.4
0.688,0.0007,0.0165,0.0015,0.0067,42.6
0.689,0.0007,0.015,0.0015,0.0097,42.7
0.69,0.0007,0.0105,0.003,0.009,43.0
0.691,0.0007,0.0015,0.0007,0.0097,43.1
0.692,0.0007,-0.006,0.0007,0.009,43.3
0.693,0.003,-0.0158,0.0007,0.0052,43.5
0.694,0.003,-0.0263,0.0022,0.0045,43.7
0.695,0.0015,-0.0353,0.0022,0.003,43.9
0.696,-0.0015,-0.0405,0.0007,0.003,44.1
0.697,-0.0046,-0.0368,0.0007,-0.0008,44.2
0.698,-0.0038,-0.027,0.0,-0.0046,44.4
0.699,-0.0053,-0.0165,0.0007,-0.0091,44.6
0.7,-0.0083,-0.0023,0.0,-0.0143,44.8
0.701,-0.0083,0.0105,-0.0008,-0.0128,44.9
0.702,-0.0068,0.0225,-0.0008,-0.0105,45.1
0.703,-0.0053,0.0315,0.0007,-0.0075,45.2
0.704,-0.0046,0.0292,0.0015,-0.0053,45.4
0.705,-0.0046,0.0292,0.003,-0.0038,45.5
0.706,-0.0023,0.0262,0.0015,-0.0008,45.7
0.707,-0.0008,0.0195,0.0,0.0037,45.8
0.708,0.0007,0.012,0.0015,0.0052,46.0
0.709,0.0022,0.0007,0.0015,0.009,46.1
0.71,0.0015,-0.0128,0.0007,0.0135,46.3
0.711,0.0015,-0.0233,0.0015,0.0142,46.4
0.712,0.003,-0.0263,0.0007,0.0142,46.6
0.713,0.0045,-0.0293,0.0007,0.0127,46.8
0.714,0.0037,-0.027,0.0037,0.0067,46.9
0.715,0.0022,-0.0233,0.003,0.0045,47.0
0.716,0.003,-0.0181,0.0037,0.0022,47.2
0.717,-0.0008,-0.0128,0.0015,0.0,47.3
0.718,-0.0023,-0.0105,0.0,-0.0008,47.5
0.719,-0.0008,-0.0053,-0.0015,-0.003,47.6
0.72,-0.0038,-0.006,-0.003,-0.0046,47.8
0.721,-0.0068,-0.0053,-0.0046,-0.0053,47.9
0.722,-0.0053,-0.006,-0.0091,-0.0038,48.0
0.723,-0.0046,-0.0046,-0.0083,-0.0038,48.1
0.724,-0.0053,-0.0023,-0.0083,-0.0053,48.2
0.725,-0.0068,-0.006,-0.0075,-0.003,48.4
0.726,-0.0068,-0.0046,-0.0068,-0.0023,48.5
0.727,-0.0053,-0.0008,-0.006,0.0015,48.6
0.728,-0.0046,0.003,-0.0046,0.0007,48.7
0.729,-0.0023,0.0082,-0.0083,0.0,48.8
0.73,-0.0008,0.0172,-0.0075,0.0015,49.0
0.731,0.0022,0.0225,-0.0075,0.0037,49.0
0.732,0.0037,0.0195,-0.0053,0.0067,49.2
0.733,0.0007,0.015,-0.0053,0.006,49.3
0.734,0.0,0.0097,-0.0046,0.0052,49.4
0.735,0.0007,0.006,-0.0008,0.003,49.5
0.736,0.0037,0.0045,0.0007,0.003,49.6
0.737,0.0075,-0.0015,0.003,0.0037,49.7
0.738,0.0067,-0.0046,0.003,0.003,49.9
0.739,0.0052,-0.0046,0.0045,0.0052,49.9
0.74,0.0045,-0.0046,0.0067,0.0082,50.1
0.741,0.0045,-0.0083,0.006,0.0082,50.1
0.742,0.0037,-0.0158,0.0067,0.0052,50.2
0.743,0.0007,-0.0158,0.0052,0.0045,50.3
0.744,-0.0008,-0.0195,0.003,0.0052,50.3
0.745,-0.0015,-0.0195,0.0015,0.0045,50.4
0.746,-0.003,-0.0143,0.0015,0.003,50.4
0.747,-0.003,-0.0135,-0.0008,0.0007,50.5
0.748,-0.003,-0.0143,-0.0046,0.0015,50.5
0.749,-0.003,-0.012,-0.0083,0.0015,50.6
0.75,-0.003,-0.0083,-0.0091,0.003,50.7
0.751,-0.0023,-0.0068,-0.0098,0.0015,50.7
0.752,-0.0023,-0.0046,-0.0098,0.0015,50.8
0.753,-0.003,-0.006,-0.0098,0.0015,50.8
0.754,-0.0015,-0.0098,-0.012,0.003,50.9
0.755,-0.0015,-0.012,-0.0143,0.0067,51.0
0.756,-0.0008,-0.012,-0.0181,0.0067,51.0
0.757,0.0,-0.0046,-0.0203,0.0045,51.1
0.758,-0.0008,-0.0015,-0.0218,0.0045,51.1
0.759,-0.0015,-0.0023,-0.024,0.0037,51.2
0.76,-0.0023,-0.0015,-0.0323,0.0015,51.3
0.761,-0.0015,-0.003,-0.042,0.0007,51.3
0.762,-0.0008,-0.0023,-0.0503,0.003,51.3
0.763,-0.0015,0.0,-0.0593,0.003,51.3
0.764,0.0015,0.0007,-0.0653,0.003,51.3
0.765,0.003,0.0015,-0.0691,0.0037,51.3
0.766,0.003,0.0015,-0.0706,0.003,51.3
0.767,0.0022,-0.0008,-0.0735,0.0022,51.3
0.768,-0.0008,-0.0046,-0.0788,-0.0008,51.3
0.769,-0.0008,-0.0038,-0.081,-0.003,51.4
0.77,-0.0008,-0.0015,-0.0818,0.0007,51.4
0.771,-0.0015,0.0,-0.0803,0.0,51.4
0.772,-0.0008,0.0045,-0.084,0.0,51.4
0.773,-0.0023,0.0067,-0.0825,-0.0015,51.4
0.774,-0.0023,0.0052,-0.0825,-0.0023,51.4
0.775,-0.0008,0.0037,-0.0848,-0.0015,51.5
0.776,-0.0008,0.0037,-0.063,-0.0015,51.5
0.777,-0.003,0.0015,0.0052,-0.003,51.5
0.778,0.0,0.0007,0.1027,-0.0023,51.5
0.779,0.0037,0.0022,0.1852,-0.0015,51.5
0.78,0.0022,0.0015,0.2437,-0.0008,51.5
0.781,0.0015,0.0022,0.2745,-0.0015,51.5
0.782,0.0007,0.0007,0.2902,0.0,51.5
0.783,-0.0008,0.0,0.2947,0.0015,51.5
0.784,-0.0015,0.0037,0.2805,0.0007,51.4
0.785,-0.0023,0.009,0.2647,0.0015,51.4
0.786,-0.0015,0.009,0.2422,0.0022,51.4
0.787,-0.0023,0.0052,0.2175,0.003,51.3
0.788,-0.003,0.0045,0.1912,0.003,51.3
0.789,-0.003,0.0045,0.1635,0.0045,51.3
0.79,-0.0046,0.0037,0.1365,0.003,51.3
0.791,-0.0046,0.0052,0.1072,0.0052,51.2
0.792,-0.003,0.0067,0.084,0.0052,51.2
0.793,-0.003,0.0082,0.0592,0.0037,51.2
0.794,-0.003,0.0045,0.0367,0.0037,51.1
0.795,-0.003,0.0015,0.0157,0.003,51.1
0.796,-0.003,0.003,-0.0008,0.0045,51.1
0.797,-0.0015,0.0015,-0.0173,0.003,51.0
0.798,-0.0008,0.0015,-0.0308,0.003,51.0
0.799,-0.0008,0.0022,-0.0428,0.0022,51.0
0.8,-0.0015,0.0037,-0.057,0.0015,50.9
0.801,-0.003,0.0067,-0.0638,0.0007,50.8
0.802,-0.0038,0.0052,-0.0698,0.0007,50.8
0.803,-0.0053,0.003,-0.0765,-0.0023,50.7
0.804,-0.0046,0.0007,-0.0833,-0.0008,50.6
0.805,-0.0008,0.0,-0.0878,0.0007,50.5
0.806,-0.0008,-0.0008,-0.0923,0.0022,50.4
0.807,-0.0008,-0.0008,-0.0938,0.0052,50.3
0.808,0.0,-0.0008,-0.0915,0.003,50.2
0.809,0.0,-0.003,-0.0871,0.0015,50.1
0.81,0.0007,-0.0075,-0.0856,0.0045,50.0
0.811,0.0015,-0.012,-0.0803,0.0052,49.9
0.812,0.0015,-0.015,-0.075,0.0045,49.8
0.813,0.0022,-0.0165,-0.0728,0.0022,49.7
0.814,0.0007,-0.0158,-0.0675,0.0015,49.6
0.815,0.0015,-0.0105,-0.0638,0.0007,49.5
0.816,0.0015,-0.0128,-0.06,-0.0023,49.5
0.817,-0.0008,-0.0195,-0.0563,-0.003,49.4
0.818,-0.0008,-0.0195,-0.0518,-0.003,49.3
0.819,-0.0023,-0.0256,-0.0458,-0.0023,49.2
0.82,-0.0046,-0.0315,-0.0405,-0.0023,49.0
0.821,-0.0046,-0.0315,-0.0368,-0.003,49.0
0.822,-0.0046,-0.0323,-0.0375,-0.0038,48.9
0.823,-0.0046,-0.03,-0.033,-0.003,48.7
0.824,-0.003,-0.024,-0.0293,-0.0038,48.6
0.825,-0.003,-0.0158,-0.0285,-0.0053,48.5
0.826,-0.0046,-0.0075,-0.0233,-0.003,48.4
0.827,-0.0053,-0.0008,-0.0203,-0.003,48.3
0.828,-0.0046,0.0067,-0.0173,-0.003,48.2
0.829,-0.0046,0.009,-0.012,-0.0015,48.1
0.83,-0.003,0.0082,-0.0105,-0.0015,47.9
0.831,0.0007,0.003,-0.0105,0.0,47.8
0.832,0.003,-0.0008,-0.0098,0.003,47.7
0.833,0.0045,0.003,-0.0113,0.0045,47.6
0.834,0.0052,0.009,-0.0105,0.0052,47.5
0.835,0.0045,0.0127,-0.0091,0.0052,47.4
0.836,0.0052,0.0112,-0.0068,0.0052,47.2
0.837,0.0045,0.0127,-0.0068,0.0052,47.2
0.838,0.0052,0.0142,-0.0075,0.006,47.0
0.839,0.0045,0.012,-0.0053,0.006,46.9
0.84,0.0022,0.003,-0.003,0.0045,46.8
0.841,0.0045,-0.0023,-0.003,0.0052,46.7
0.842,0.0015,-0.0046,-0.0023,0.0052,46.5
0.843,0.0015,-0.0083,-0.0038,0.0045,46.4
0.844,0.0015,-0.0083,-0.0046,0.0052,46.3
0.845,-0.0015,-0.0113,-0.0015,0.0052,46.1
0.846,-0.003,-0.0128,0.0015,0.0022,45.9
0.847,-0.0053,-0.0165,0.0022,0.0022,45.8
0.848,-0.0075,-0.0195,0.0015,0.0015,45.7
0.849,-0.0068,-0.012,0.0007,-0.0008,45.5
0.85,-0.0053,-0.003,0.0007,0.0,45.4
0.851,-0.0053,0.0007,0.0007,0.0007,45.3
0.852,-0.0068,0.003,0.0007,-0.0008,45.1
0.853,-0.0083,0.0015,-0.0008,-0.0038,45.0
0.854,-0.0083,0.0015,-0.0015,-0.0046,44.9
0.855,-0.0068,0.006,-0.0008,-0.0046,44.7
0.856,-0.0046,0.009,0.0,-0.0053,44.5
0.857,-0.0038,0.0105,0.0007,-0.0015,44.4
0.858,-0.0015,0.009,0.0015,-0.0015,44.3
0.859,-0.0015,0.0105,0.0022,0.0015,44.1
0.86,-0.0015,0.0127,0.0045,0.0015,44.0
0.861,-0.0008,0.0135,0.0052,0.0007,43.8
0.862,0.0007,0.0135,0.006,0.0022,43.6
0.863,0.0022,0.015,0.0082,0.003,43.5
0.864,0.0022,0.0157,0.009,0.0037,43.3
0.865,0.003,0.0165,0.0105,0.003,43.1
0.866,0.003,0.0172,0.0097,0.0045,43.0
0.867,0.003,0.0172,0.0097,0.0045,42.8
0.868,0.003,0.015,0.009,0.0045,42.7
0.869,0.0015,0.0112,0.0075,0.006,42.5
0.87,0.0022,0.006,0.0082,0.0052,42.3
0.871,0.0022,-0.0015,0.0052,0.0045,42.2
0.872,0.0022,-0.0046,0.0045,0.0067,42.0
0.873,0.0015,-0.0068,0.0052,0.0067,41.8
0.874,-0.0008,-0.006,0.0045,0.0037,41.6
0.875,-0.0008,-0.0038,0.0007,0.0037,41.5
0.876,-0.0008,-0.0046,0.0015,0.0052,41.3
0.877,-0.0008,-0.0046,0.0007,0.0067,41.1
0.878,0.0,-0.0053,0.0015,0.0052,41.0
0.879,0.0007,-0.0046,0.0037,0.003,40.8
0.88,0.0,-0.003,0.003,0.0045,40.6
0.881,0.0,-0.0023,0.0022,0.0045,40.5
0.882,0.0007,-0.0008,0.0015,0.0052,40.3
0.883,0.0007,0.0007,0.0007,0.003,40.1
0.884,0.0007,0.0022,0.0015,0.0015,39.9
0.885,-0.0008,0.0052,-0.0008,0.0015,39.7
0.886,-0.003,0.0052,-0.0008,0.0,39.6
0.887,-0.0015,0.0045,-0.0008,0.0007,39.4
0.888,-0.0008,0.006,0.0,0.0007,39.2
0.889,-0.0015,0.0082,0.0022,0.0,39.0
0.89,-0.0015,0.0082,0.0015,0.0007,38.8
0.891,-0.0008,0.0105,0.0022,0.0007,38.7
0.892,0.0007,0.0075,0.0045,0.0007,38.5
0.893,-0.0008,-0.0053,0.0052,-0.0008,38.3
0.894,-0.0015,-0.0173,0.0067,-0.0008,38.2
0.895,-0.003,-0.0233,0.0067,0.0,38.0
0.896,-0.003,-0.024,0.009,0.0015,37.8
0.897,-0.0015,-0.0233,0.009,0.0,37.6
0.898,-0.003,-0.0256,0.009,0.0015,37.4
0.899,-0.0038,-0.027,0.0112,0.003,37.3
0.9,-0.0038,-0.0233,0.0097,0.0015,37.0
0.901,-0.0038,-0.0195,0.0097,0.0007,36.9
0.902,-0.0046,-0.0173,0.009,0.0015,36.7
0.903,-0.0053,-0.0181,0.0082,0.0007,36.5
0.904,-0.0038,-0.0195,0.0082,0.0007,36.3
0.905,-0.0046,-0.0188,0.006,0.0015,36.1
0.906,-0.0046,-0.0173,0.0015,0.0007,35.9
0.907,-0.0008,-0.012,0.0007,-0.0008,35.7
0.908,0.0022,-0.0083,0.0015,-0.0015,35.5
0.909,0.0022,-0.006,0.0015,-0.0008,35.3
0.91,0.0007,-0.0053,0.0015,-0.0008,35.1
0.911,0.0007,-0.0015,0.0007,-0.0008,35.0
0.912,0.0,0.003,0.0007,0.0015,34.7
0.913,0.0007,0.0007,0.0007,0.0007,34.6
0.914,-0.0008,-0.0008,0.0007,0.0,34.4
0.915,-0.0008,0.0015,0.0,0.0007,34.1
0.916,0.0007,0.0067,0.0015,0.0007,34.0
0.917,-0.0008,0.0082,0.0022,-0.0008,33.8
0.918,0.0,0.0045,0.0015,0.0015,33.6
0.919,0.0015,0.003,0.0037,0.0015,33.4
0.92,0.0,0.0045,0.0037,0.003,33.2
0.921,-0.0015,0.0037,0.0037,0.0037,33.0
0.922,-0.0023,0.003,0.0022,0.003,32.8
0.923,-0.0008,0.0037,0.0007,0.0022,32.6
0.924,-0.0008,0.0052,0.0007,0.0007,32.4
0.925,0.0,0.0052,0.0022,0.003,32.2
0.926,0.0007,0.0045,0.0015,0.003,32.0
0.927,0.0,0.0045,0.0015,0.0015,31.9
0.928,-0.0008,0.0007,0.0022,0.0007,31.6
0.929,-0.0008,0.0007,0.003,0.0015,31.5
0.93,-0.0008,0.0022,0.003,0.0022,31.2
0.931,-0.0008,0.0,0.0037,0.0015,31.0
0.932,-0.0015,-0.0008,0.003,0.0022,30.9
0.933,-0.0008,0.003,0.0037,0.003,30.6
0.934,-0.0008,0.006,0.0052,0.003,30.5
0.935,-0.0008,0.0097,0.0037,0.0052,30.3
0.936,-0.003,0.0105,0.0037,0.006,30.1
0.937,-0.003,0.0052,0.0052,0.0045,29.9
0.938,-0.003,0.0022,0.0052,0.0037,29.7
0.939,-0.0008,-0.0008,0.0015,0.0037,29.5
0.94,-0.0008,-0.006,0.0015,0.0037,29.2
0.941,-0.0015,-0.0098,0.003,0.0045,29.1
0.942,-0.003,-0.0098,0.0022,0.0045,28.9
0.943,-0.003,-0.0098,0.0022,0.003,28.7
0.944,-0.0015,-0.0113,0.003,0.0015,28.5
0.945,-0.003,-0.0105,-0.0008,0.0022,28.3
0.946,-0.0023,-0.0091,-0.0008,0.0022,28.1
0.947,-0.0023,-0.0083,0.0,0.0022,27.9
0.948,-0.003,-0.006,-0.0015,0.0022,27.7
0.949,-0.0008,-0.0038,-0.0008,0.003,27.5
0.95,-0.003,-0.0015,-0.0008,0.0022,27.3
0.951,-0.0008,0.0007,-0.0015,0.0007,27.1
0.952,0.0045,0.0007,-0.0023,0.0015,26.9
0.953,0.0075,-0.0008,-0.0038,0.0,26.7
0.954,0.0067,0.0007,-0.0015,-0.0015,26.5
0.955,0.0045,0.0,0.0,-0.0015,26.3
0.956,0.0007,-0.0015,-0.0008,-0.0008,26.1
0.957,-0.0015,-0.0008,-0.0015,0.0,25.9
0.958,-0.0008,0.0,-0.0038,0.0,25.7
0.959,-0.0015,0.0007,-0.0015,-0.0008,25.5
0.96,0.0,0.0015,0.0007,0.0,25.2
0.961,0.0015,0.003,0.0015,-0.0008,25.1
0.962,0.0007,0.0007,0.003,0.0,24.9
0.963,-0.0008,-0.003,0.0022,-0.0008,24.7
0.964,-0.0015,-0.0046,0.003,-0.0015,24.5
0.965,-0.0038,-0.0053,0.003,-0.0008,24.3
0.966,-0.0091,-0.0083,0.003,-0.0008,24.1
0.967,-0.0128,-0.0165,0.0007,-0.0008,23.9
0.968,-0.0091,-0.027,0.0015,-0.0008,23.7
0.969,-0.0046,-0.0263,0.0015,0.0,23.5
0.97,-0.0015,-0.024,0.0015,0.0015,23.3
0.971,0.0045,-0.0218,0.0007,0.0,23.1
0.972,0.009,-0.0165,-0.0008,0.0015,22.9
0.973,0.0142,-0.0113,0.0015,0.0007,22.7
0.974,0.0142,-0.0091,0.0022,0.0,22.5
0.975,0.0112,-0.0113,0.0007,0.0007,22.3
0.976,0.009,-0.0128,0.0007,0.0015,22.1
0.977,0.0075,-0.0143,0.0007,0.0045,21.9
0.978,0.0045,-0.0083,0.0015,0.003,21.7
0.979,-0.0008,-0.0008,0.0007,0.0037,21.5
0.98,-0.0053,0.0015,-0.0008,0.003,21.3
0.981,-0.0105,0.0045,0.0007,0.0015,21.1
0.982,-0.012,0.0015,0.0,0.0045,20.9
0.983,-0.012,-0.0046,0.0,0.003,20.7
0.984,-0.0091,-0.003,-0.0008,0.0015,20.5
0.985,-0.0053,0.0,-0.0008,0.0022,20.3
0.986,-0.0046,-0.0015,-0.0008,0.003,20.1
0.987,-0.0038,0.0045,-0.0008,0.003,19.8
0.988,-0.003,0.0082,-0.0008,0.0022,19.7
0.989,-0.0008,0.009,-0.0015,0.0007,19.4
0.99,0.0,0.009,-0.0015,0.0015,19.2
0.991,0.0007,0.0067,-0.0015,0.0015,19.0
0.992,-0.0015,0.0045,-0.0015,0.0007,18.8
0.993,-0.0046,0.003,0.0007,0.0,18.6
0.994,-0.003,0.0067,0.0,-0.0015,18.4
0.995,-0.0023,0.0067,0.0007,-0.0015,18.2
0.996,-0.0015,0.0052,0.0,-0.0015,18.0
0.997,-0.0023,0.0045,0.0007,-0.0008,17.8
0.998,-0.0046,0.0022,0.0015,-0.0008,17.5
0.999,-0.0038,0.0007,0.0007,-0.0008,17.4
1.0,-0.0023,0.0015,0.0007,-0.0008,17.1
1.001,-0.0008,0.0045,0.0,-0.0008,17.0
1.002,0.0,0.0052,0.0,-0.0008,16.7
1.003,0.0007,0.006,-0.0008,-0.0015,16.6
1.004,0.0015,0.0045,0.0,-0.0015,16.3
1.005,0.003,0.0052,0.0022,0.0007,16.2
1.006,0.003,0.006,0.003,-0.0008,15.9
1.007,0.0007,0.0052,0.0022,-0.0015,15.7
1.008,-0.0008,0.0015,0.0022,-0.0023,15.5
1.009,0.0022,0.0007,0.0015,0.0015,15.3
1.01,0.0022,0.0022,0.0022,0.0052,15.1
1.011,0.0007,0.003,0.003,0.0052,14.9
1.012,0.0007,0.003,0.0045,0.006,14.8
1.013,0.0015,0.0067,0.0052,0.0067,14.5
1.014,0.0007,0.0082,0.0022,0.006,14.4
1.015,-0.0015,0.0105,0.0015,0.0052,14.1
1.016,-0.0015,0.0105,0.003,0.0045,13.9
1.017,-0.0008,0.009,0.0015,0.0045,13.7
1.018,0.0007,0.0082,0.0,0.003,13.5
1.019,0.0007,0.0045,0.0007,0.0037,13.3
1.02,-0.0008,0.0015,0.0015,0.0037,13.1
1.021,0.0015,0.0007,0.0015,0.0045,13.0
1.022,0.0037,-0.0008,0.0007,0.0037,12.8
1.023,0.003,-0.0023,0.0,0.0007,12.6
1.024,0.0,-0.0038,-0.0008,-0.0023,12.4
1.025,-0.0015,-0.0038,-0.0023,-0.0015,12.2
1.026,0.0007,-0.0053,-0.003,-0.0015,12.0
1.027,0.003,-0.0091,-0.003,-0.0023,11.8
1.028,0.0007,-0.0098,-0.0023,-0.003,11.7
1.029,-0.003,-0.0075,-0.0008,-0.003,11.5
1.03,-0.0023,-0.0038,0.0015,-0.003,11.2
1.031,-0.0015,-0.003,0.0,-0.0015,11.1
1.032,-0.0038,-0.0068,-0.0008,-0.0008,10.9
1.033,-0.0023,-0.0068,0.0,-0.0015,10.7
1.034,-0.0015,-0.0083,-0.0008,-0.0023,10.5
1.035,-0.0023,-0.006,-0.003,-0.0015,10.3
1.036,-0.003,-0.0046,-0.003,-0.0008,10.2
1.037,-0.0023,-0.0046,-0.0008,0.0007,9.9
1.038,-0.003,0.0007,0.0007,0.0045,9.8
1.039,-0.0015,0.0,0.0015,0.0067,9.6
1.04,-0.0015,-0.0068,0.0015,0.0082,9.4
1.041,-0.0015,-0.0158,0.0015,0.0075,9.2
1.042,-0.0008,-0.0218,0.003,0.0075,9.1
1.043,-0.0008,-0.0203,0.0015,0.0075,8.9
1.044,-0.0008,-0.0195,0.0015,0.006,8.8
1.045,0.0007,-0.0165,0.0015,0.0045,8.6
1.046,-0.0008,-0.0135,0.0007,0.0045,8.4
1.047,-0.0015,-0.015,-0.0008,0.0052,8.3
1.048,-0.0015,-0.0158,-0.0015,0.0022,8.1
1.049,-0.0015,-0.0143,0.0007,0.0,8.0
1.05,-0.0015,-0.0143,0.0007,0.0,7.8
1.051,-0.003,-0.012,0.0007,0.0015,7.6
1.052,-0.0046,-0.0083,0.0007,0.003,7.5
1.053,-0.003,-0.0053,-0.0008,0.0015,7.3
1.054,-0.003,-0.0038,0.0007,0.0015,7.2
1.055,-0.003,-0.003,0.0007,0.0015,7.0
1.056,-0.0038,-0.0038,0.003,0.003,6.8
1.057,-0.0075,-0.003,0.003,0.003,6.7
1.058,-0.0105,-0.0008,0.0037,0.0015,6.5
1.059,-0.0105,0.0,0.0022,-0.0008,6.3
1.06,-0.0075,-0.0023,0.003,-0.0023,6.1
1.061,-0.0053,-0.0015,0.006,-0.0023,6.0
1.062,-0.0008,0.0007,0.0045,-0.003,5.9
1.063,0.0067,0.003,0.003,-0.0015,5.8
1.064,0.0105,0.0052,0.0022,0.0007,5.7
1.065,0.0142,0.009,0.0037,0.0015,5.5
1.066,0.0202,0.0135,0.0075,0.003,5.4
1.067,0.0195,0.0165,0.0082,0.0037,5.3
1.068,0.0127,0.0172,0.0052,0.0022,5.1
1.069,0.0082,0.0142,0.0045,0.0045,5.0
1.07,0.0022,0.0105,0.0052,0.0067,4.9
1.071,-0.003,0.0082,0.009,0.006,4.8
1.072,-0.0083,0.0045,0.0075,0.0052,4.6
1.073,-0.0105,0.0015,0.0052,0.0022,4.5
1.074,-0.0105,-0.0015,0.0052,0.0015,4.4
1.075,-0.0083,-0.0015,0.0052,0.003,4.2
1.076,-0.0053,-0.0023,0.0067,0.0022,4.1
1.077,-0.0046,-0.0053,0.0045,-0.0008,4.0
1.078,-0.0046,-0.0046,0.0022,-0.006,3.9
1.079,-0.0046,-0.0046,0.0007,-0.006,3.7
1.08,-0.003,-0.0023,0.0007,-0.0038,3.6
1.081,-0.0023,0.003,0.0007,-0.0046,3.5
1.082,-0.003,0.003,-0.0008,-0.006,3.4
1.083,-0.003,-0.0023,-0.0015,-0.0068,3.2
1.084,-0.0023,-0.0046,-0.0015,-0.0053,3.1
1.085,-0.0015,-0.0008,0.0,-0.0053,3.0
1.086,-0.003,-0.003,-0.0008,-0.0008,2.9
1.087,-0.0038,-0.0015,-0.0015,0.0037,2.8
1.088,-0.0015,0.0,0.0,0.0022,2.6
1.089,-0.0008,-0.003,-0.0008,0.006,2.6
1.09,-0.0023,-0.0068,0.0007,0.0097,2.4
1.091,0.0015,-0.0098,0.003,0.0015,2.3
1.092,0.003,-0.0113,0.003,-0.0128,2.2
1.093,0.003,-0.0105,0.0052,-0.0195,2.1
1.094,0.0045,-0.0053,0.0052,-0.015,2.0
1.095,0.0045,-0.0023,0.0045,-0.012,1.8
1.096,0.003,-0.003,0.0015,-0.0075,1.7
1.097,0.0015,-0.0068,-0.0015,-0.003,1.6
1.098,0.0037,-0.0105,-0.003,0.0052,1.5
1.099,0.003,-0.006,-0.0046,0.0172,1.4
1.1,-0.0008,0.0127,-0.0046,0.03,1.2
1.101,-0.0008,0.0502,-0.0046,0.0502,1.2
1.102,-0.0023,0.0637,-0.0046,0.0727,1.1
1.103,-0.003,0.0495,-0.0038,0.0562,1.0
1.104,-0.0015,0.0345,-0.0046,0.0195,1.0
1.105,-0.003,0.0202,-0.003,0.006,0.9
1.106,-0.0053,0.027,-0.0046,0.0045,0.8
1.107,-0.0038,0.0315,-0.0046,0.0007,0.8
1.108,-0.003,0.015,-0.0008,-0.0068,0.7
1.109,-0.0008,0.003,0.003,-0.0091,0.6
1.11,0.0007,0.0015,0.0015,-0.0083,0.5
1.111,-0.0015,-0.0046,0.0,-0.0143,0.4
1.112,-0.0038,-0.024,-0.0015,-0.0225,0.4
1.113,-0.0046,-0.0511,-0.003,-0.0413,0.3
1.114,-0.0068,-0.063,-0.0023,-0.057,0.3
1.115,-0.006,-0.063,-0.003,-0.057,0.2
1.116,-0.0038,-0.0668,-0.003,-0.0563,0.1
1.117,-0.0008,-0.0653,-0.0023,-0.048,0.0
1.118,0.003,-0.057,-0.0015,-0.0278,0.0
1.119,0.0007,-0.0511,-0.0046,0.0007,-0.1
1.12,-0.0008,-0.0525,-0.0053,0.0352,-0.2
1.121,-0.0008,-0.0495,-0.0046,0.072,-0.2
1.122,-0.0008,-0.0436,-0.006,0.0915,-0.2
1.123,0.0015,-0.039,-0.0046,0.0937,-0.2
1.124,0.0,-0.0218,-0.0038,0.0877,-0.3
1.125,-0.0008,-0.0091,-0.003,0.0682,-0.3
1.126,0.0037,-0.0023,0.0,0.0457,-0.3
1.127,0.0052,0.0292,0.003,-0.0008,-0.3
1.128,0.0052,0.0345,0.0052,-0.0608,-0.3
1.129,0.0045,0.0052,0.006,-0.0825,-0.4
1.13,0.0045,-0.0091,0.003,-0.0856,-0.4
1.131,0.003,-0.0203,0.003,-0.0765,-0.4
1.132,0.0045,-0.0143,0.0045,-0.0691,-0.4
1.133,0.0052,0.009,0.0045,-0.0608,-0.4
1.134,0.003,0.0292,0.003,-0.0308,-0.5
1.135,0.0015,0.0532,0.0037,-0.0015,-0.5
1.136,0.0007,0.0675,0.0052,0.0217,-0.5
1.137,0.0007,0.057,0.0052,0.0532,-0.5
1.138,0.0015,0.0427,0.0067,0.09,-0.5
1.139,0.003,0.0555,0.0082,0.0982,-0.5
1.14,0.0015,0.0532,0.0075,0.0615,-0.6
1.141,-0.0008,0.0105,0.0052,0.0337,-0.6
1.142,0.0,-0.006,0.003,0.0382,-0.6
1.143,-0.003,-0.012,-0.0015,0.0277,-0.6
1.144,-0.0046,-0.0225,-0.0023,0.0067,-0.5
1.145,-0.0053,-0.021,-0.0015,-0.0218,-0.5
1.146,-0.0075,-0.024,0.0,-0.0248,-0.5
1.147,-0.006,-0.0135,0.0015,0.0,-0.5
1.148,-0.003,-0.0053,0.0045,0.0202,-0.5
1.149,0.0007,-0.0083,0.0052,0.0345,-0.5
1.15,0.0015,-0.0105,0.0045,0.0217,-0.5
1.151,-0.0015,-0.0113,0.0022,0.0007,-0.5
1.152,-0.003,-0.0113,-0.0015,-0.0256,-0.5
1.153,-0.0046,-0.0293,-0.0008,-0.039,-0.5
1.154,-0.0023,-0.0361,0.0,-0.0443,-0.5
1.155,-0.0015,-0.0308,0.0015,-0.0473,-0.5
1.156,-0.003,-0.0233,0.0022,-0.0503,-0.5
1.157,-0.003,-0.0083,0.003,-0.0533,-0.5
1.158,-0.0038,-0.0068,0.0045,-0.0495,-0.5
1.159,-0.003,-0.0083,0.003,-0.0428,-0.5
1.16,-0.0015,-0.0015,0.0,-0.0353,-0.5
1.161,-0.003,0.0157,-0.0015,-0.024,-0.4
1.162,-0.0038,0.0442,-0.0015,0.0007,-0.4
1.163,-0.0015,0.0645,-0.0015,0.0322,-0.4
1.164,-0.0008,0.048,0.0,0.0615,-0.3
1.165,-0.0015,0.0277,0.0015,0.078,-0.3
1.166,0.0015,0.0052,-0.0008,0.0615,-0.3
1.167,0.0037,-0.0128,-0.0015,0.0352,-0.2
1.168,0.0022,-0.0165,0.0,0.0367,-0.2
1.169,0.0007,-0.0256,-0.0008,0.039,-0.2
1.17,-0.0015,-0.0105,-0.0038,0.0337,-0.1
1.171,-0.0015,-0.0015,-0.0046,0.0097,-0.1
1.172,-0.0023,0.0142,-0.0053,-0.0293,-0.1
1.173,-0.003,0.0487,-0.0075,-0.0353,-0.1
1.174,-0.0053,0.0382,-0.0075,-0.0338,0.0
1.175,-0.0046,0.0045,-0.0083,-0.0225,0.0
1.176,-0.0038,-0.0015,-0.006,0.0045,0.0
1.177,-0.0038,-0.0015,-0.0015,0.0187,0.0
1.178,-0.0008,-0.0015,0.0045,0.0082,0.1
1.179,-0.0008,-0.003,0.0045,-0.0075,0.1
1.18,-0.0053,-0.003,0.0,-0.0091,0.1
1.181,-0.0053,-0.0015,-0.0015,-0.021,0.2
1.182,-0.0046,0.0007,-0.0015,-0.0293,0.2
1.183,-0.0053,0.0232,-0.0015,-0.0181,0.3
1.184,-0.0053,0.042,-0.0023,-0.006,0.4
1.185,-0.003,0.0157,-0.0015,-0.003,0.4
1.186,-0.0015,-0.0225,0.0045,0.0045,0.4
1.187,-0.0023,-0.0353,0.0052,0.0142,0.5
1.188,-0.003,-0.042,0.003,0.0255,0.5
1.189,-0.0008,-0.0405,0.0015,0.03,0.6
1.19,0.0007,-0.0353,-0.0008,0.0307,0.7
1.191,0.0,-0.0383,0.0015,0.033,0.7
1.192,0.0022,-0.0405,0.0045,0.0225,0.8
1.193,0.006,-0.0383,0.009,-0.0038,0.8
1.194,0.009,-0.0285,0.012,-0.0248,0.9
1.195,0.0052,-0.0278,0.0105,-0.0278,0.9
1.196,0.0037,-0.033,0.0112,-0.0315,0.9
1.197,0.003,-0.033,0.0105,-0.0293,1.0
1.198,0.0007,-0.0308,0.0067,-0.0181,1.1
1.199,-0.003,-0.0256,0.009,0.0082,1.1
1.2,-0.003,-0.0158,0.0097,0.0255,1.2
1.201,-0.0008,-0.0015,0.0075,0.012,1.2
1.202,-0.0038,0.0045,0.006,0.0007,1.2
1.203,-0.0015,0.0045,0.0052,0.0052,1.3
1.204,0.0,0.0007,0.006,0.0052,1.3
1.205,0.0007,-0.0068,0.0037,-0.0105,1.3
1.206,0.0015,-0.0023,0.0045,-0.012,1.3
1.207,0.003,0.0007,0.0082,-0.0091,1.3
1.208,0.003,0.006,0.0105,0.003,1.3
1.209,0.003,0.0082,0.0142,0.0165,1.4
1.21,0.0037,0.0045,0.012,0.0015,1.4
1.211,0.0007,0.003,0.006,-0.0128,1.4
1.212,-0.0008,0.003,0.003,-0.0053,1.5
1.213,-0.0015,0.003,0.0045,0.009,1.5
1.214,-0.0023,0.0022,0.0075,0.0157,1.5
1.215,0.0045,0.0097,0.0105,0.0315,1.5
1.216,0.0082,0.0142,0.0112,0.0345,1.6
1.217,0.0045,0.0142,0.015,0.0322,1.6
1.218,0.003,0.0105,0.0375,0.0195,1.6
1.219,0.0007,0.003,0.0615,-0.0038,1.6
1.22,-0.0053,0.033,0.057,-0.0158,1.7
1.221,-0.0143,0.081,0.0405,-0.0218,1.7
1.222,-0.0165,0.0667,0.0232,-0.0105,1.6
1.223,-0.0143,0.0247,-0.0015,-0.0038,1.5
1.224,-0.015,0.0142,-0.0158,0.0022,1.4
1.225,-0.0128,0.0007,-0.0225,0.0195,1.4
1.226,-0.0083,-0.0038,-0.0203,0.0187,1.3
1.227,-0.0038,-0.0113,-0.024,-0.0098,1.3
1.228,-0.0008,-0.0203,-0.0361,-0.0346,1.2
1.229,0.0135,-0.0143,-0.0368,-0.0405,1.1
1.23,0.0217,-0.027,-0.0218,-0.0413,1.0
1.231,0.0142,-0.0353,-0.0105,-0.021,1.0
1.232,0.018,-0.0181,-0.0105,-0.0098,0.9
1.233,0.018,0.0007,-0.0046,0.0187,0.9
1.234,0.0075,0.0075,0.0015,0.048,0.8
1.235,0.006,0.012,0.0045,0.009,0.7
1.236,0.0007,0.009,0.0067,-0.0285,0.7
1.237,-0.0068,0.0015,0.0082,-0.0278,0.6
1.238,-0.0135,-0.0053,0.0105,-0.0195,0.5
1.239,-0.0181,-0.012,0.0075,-0.0068,0.4
1.24,-0.0135,-0.0158,0.0052,-0.006,0.4
1.241,-0.012,-0.0203,-0.0008,-0.0128,0.3
1.242,-0.0113,-0.015,-0.0068,-0.0008,0.1
1.243,-0.0098,-0.0113,-0.0091,0.0105,0.0
1.244,-0.0091,-0.0128,-0.012,0.0292,-0.1
1.245,-0.0053,-0.0113,-0.0113,0.0397,-0.3
1.246,-0.0015,-0.0105,-0.0105,-0.0135,-0.5
1.247,-0.0008,0.0142,-0.012,-0.0555,-0.6
1.248,-0.003,0.0495,-0.0135,-0.03,-0.7
1.249,-0.003,0.0502,-0.0143,0.0007,-0.9
1.25,-0.0008,0.0345,-0.0181,0.0277,-1.0
1.251,-0.0015,0.0322,-0.0218,0.0517,-1.1
1.252,-0.0015,0.0315,-0.0203,0.0562,-1.3
1.253,-0.0046,0.0172,-0.0218,0.0487,-1.4
1.254,-0.0068,-0.0091,-0.021,0.0292,-1.5
1.255,-0.0046,-0.0098,-0.0195,0.0427,-1.7
1.256,-0.0008,0.0082,-0.0165,0.06,-1.8
1.257,-0.0008,-0.0038,-0.0113,0.0577,-2.0
1.258,-0.0008,-0.0458,-0.0091,0.0577,-2.1
1.259,0.0015,-0.0706,-0.0068,0.0292,-2.3
1.26,0.0045,-0.0615,-0.0046,0.0082,-2.4
1.261,0.0045,-0.0585,-0.0015,0.036,-2.4
1.262,0.0045,-0.0428,0.0015,0.0495,-2.4
1.263,0.0037,0.009,0.003,0.0142,-2.4
1.264,0.003,0.0592,0.0045,-0.0233,-2.4
1.265,0.0052,0.027,0.0075,-0.0323,-2.4
1.266,0.0045,-0.0143,0.0082,-0.0315,-2.4
1.267,0.0015,-0.0128,0.0052,-0.021,-2.4
1.268,-0.0008,-0.0346,0.0015,-0.024,-2.4
1.269,-0.0038,-0.0346,-0.003,-0.0368,-2.4
1.27,-0.0015,-0.0315,-0.0098,-0.0285,-2.4
1.271,-0.0038,-0.0308,-0.0143,-0.0346,-2.4
1.272,-0.006,-0.0233,-0.021,-0.0428,-2.4
1.273,-0.0053,-0.027,-0.0293,-0.0353,-2.4
1.274,-0.0046,-0.0188,-0.0368,-0.0308,-2.4
1.275,-0.0015,-0.0181,-0.048,-0.024,-2.4
1.276,-0.0015,-0.0158,-0.057,-0.0263,-2.4
1.277,-0.0008,-0.0143,-0.0608,-0.0285,-2.4
1.278,0.0,-0.0158,-0.0638,-0.0248,-2.4
1.279,-0.0008,-0.0128,-0.0675,-0.0195,-2.4
1.28,-0.0015,-0.0091,-0.0645,-0.0113,-2.4
1.281,-0.0015,-0.0038,-0.063,-0.0023,-2.4
1.282,0.0007,0.0007,-0.0518,0.0082,-2.4
1.283,0.0015,0.0045,-0.0315,0.012,-2.4
1.284,0.0007,0.0067,-0.027,0.0097,-2.4
1.285,0.0,0.0075,-0.0195,0.0045,-2.4
1.286,0.0007,0.0082,0.003,-0.003,-2.4
1.287,-0.0008,0.0135,0.0345,-0.0068,-2.4
1.288,-0.0015,0.0142,0.057,-0.0105,-2.4
1.289,-0.0015,0.0142,0.0667,-0.0091,-2.4
1.29,-0.0023,0.015,0.078,-0.0015,-2.4
1.291,-0.003,0.015,0.0892,0.0082,-2.4
1.292,-0.003,0.018,0.1117,0.018,-2.4
1.293,-0.003,0.018,0.123,0.0315,-2.4
1.294,-0.0015,0.0172,0.1185,0.0405,-2.4
1.295,0.0007,0.0172,0.12,0.0345,-2.4
1.296,0.003,0.0187,0.1207,0.0135,-2.4
1.297,0.0015,0.0157,0.117,-0.0015,-2.5
1.298,0.0,0.0142,0.1057,0.003,-2.5
1.299,0.0,0.018,0.0967,0.0037,-2.5
1.3,0.003,0.018,0.0877,-0.0015,-2.5
1.301,0.003,0.0195,0.0757,-0.0038,-2.5
1.302,0.003,0.018,0.063,0.0007,-2.5
1.303,0.0037,0.0157,0.048,0.003,-2.5
1.304,0.003,0.0165,0.0315,0.0045,-2.5
1.305,0.0045,0.0195,0.0157,0.0067,-2.5
1.306,0.003,0.0195,0.003,-0.0023,-2.5
1.307,0.003,0.0187,-0.0091,-0.0195,-2.5
1.308,0.003,0.0157,-0.0165,-0.0195,-2.5
1.309,-0.0008,0.0105,-0.027,-0.0083,-2.5
1.31,0.0007,0.0112,-0.033,0.0067,-2.5
1.311,0.003,0.0082,-0.039,0.0405,-2.5
1.312,0.0045,0.0052,-0.0443,0.069,-2.5
1.313,0.0045,0.003,-0.0495,0.063,-2.5
1.314,0.0015,-0.0008,-0.0555,0.0277,-2.5
1.315,0.0,-0.003,-0.0585,0.0052,-2.4
1.316,-0.0023,-0.0015,-0.0593,-0.0098,-2.4
1.317,-0.0008,-0.0023,-0.0555,-0.0165,-2.4
1.318,0.003,-0.003,-0.0533,-0.0083,-2.4
1.319,0.003,-0.0083,-0.0533,0.0007,-2.4
1.32,0.0037,-0.0203,-0.048,0.009,-2.4
1.321,0.0045,-0.0308,-0.0428,0.0045,-2.4
1.322,0.0015,-0.033,-0.0368,0.0007,-2.4
1.323,0.0015,-0.0383,-0.0323,-0.0068,-2.3
1.324,0.0037,-0.0488,-0.0278,-0.0068,-2.3
1.325,0.0015,-0.057,-0.0218,0.0045,-2.3
1.326,0.0007,-0.057,-0.0181,0.0052,-2.3
1.327,-0.0008,-0.0511,-0.0165,-0.0068,-2.2
1.328,-0.0008,-0.0315,-0.0188,-0.0105,-2.2
1.329,-0.003,-0.0105,-0.0165,-0.0015,-2.1
1.33,-0.0046,-0.0023,-0.012,0.0052,-2.1
1.331,-0.0015,-0.003,-0.0075,0.0142,-2.1
1.332,0.0,-0.0105,-0.0046,0.0067,-2.0
1.333,-0.0038,-0.0068,-0.003,-0.003,-2.0
1.334,-0.0046,-0.0053,0.0007,-0.0046,-1.9
1.335,-0.003,0.0,0.0015,-0.006,-1.9
1.336,-0.0015,0.0172,0.0015,-0.0046,-1.9
1.337,-0.0008,0.0225,0.0015,-0.003,-1.8
1.338,-0.0008,0.012,0.0007,-0.0038,-1.8
1.339,-0.0015,-0.0046,-0.0008,-0.0053,-1.8
1.34,-0.0015,-0.0053,-0.0008,-0.006,-1.8
1.341,-0.003,-0.0053,0.0,-0.0083,-1.8
1.342,-0.0015,-0.0008,-0.0023,-0.0068,-1.8
1.343,-0.0015,-0.0008,-0.0023,-0.006,-1.8
1.344,-0.0015,-0.0008,-0.0023,-0.0053,-1.9
1.345,-0.003,0.0022,-0.0038,-0.0068,-1.9
1.346,-0.006,-0.0023,-0.0053,-0.006,-2.0
1.347,-0.0068,0.0015,-0.0053,-0.0053,-2.0
1.348,-0.0053,0.0015,-0.003,-0.0068,-2.1
1.349,-0.0046,0.0045,-0.0015,-0.006,-2.1
1.35,-0.003,0.0037,-0.0008,-0.0068,-2.2
1.351,-0.0015,0.003,0.003,-0.0053,-2.2
1.352,0.0022,0.0067,0.0015,-0.0038,-2.2
1.353,0.0015,0.009,0.0015,-0.003,-2.3
1.354,-0.0008,0.0105,0.0037,-0.0038,-2.3
1.355,-0.0023,0.009,-0.0008,-0.0023,-2.3
1.356,-0.0023,0.0075,-0.0008,-0.0015,-2.4
1.357,-0.003,0.0067,0.0,-0.0015,-2.4
1.358,-0.0046,0.0082,-0.0015,-0.0015,-2.5
1.359,-0.0046,0.009,0.0022,-0.0053,-2.5
1.36,-0.0023,0.0097,0.0045,-0.0053,-2.6
1.361,-0.0008,0.009,0.003,-0.0023,-2.6
1.362,-0.0015,0.0082,0.0022,-0.0008,-2.7
1.363,0.0,0.0067,0.003,0.0045,-2.7
1.364,0.0007,0.0015,0.003,0.0127,-2.8
1.365,0.0007,0.0022,0.0015,0.0112,-2.8
1.366,0.0007,0.0037,0.0007,0.006,-2.9
1.367,0.0,0.0045,0.0007,0.0082,-2.9
1.368,-0.0008,0.0045,0.0,0.006,-3.0
1.369,-0.0015,0.0045,0.0,0.0045,-3.1
1.37,-0.0008,0.0052,0.0007,0.0045,-3.1
1.371,-0.003,0.0045,0.0007,0.0037,-3.2
1.372,-0.0038,0.003,0.0007,0.0052,-3.2
1.373,-0.0015,0.0015,0.0007,0.0045,-3.3
1.374,-0.0008,0.0,0.0007,0.0037,-3.3
1.375,-0.0008,0.0007,-0.0008,0.0045,-3.4
1.376,-0.0023,0.003,0.0015,0.0045,-3.4
1.377,-0.003,0.0015,0.0015,0.003,-3.5
1.378,-0.0015,0.0,-0.0008,0.003,-3.6
1.379,-0.0015,0.0007,0.0,0.0037,-3.6
1.38,-0.0015,-0.0008,-0.0008,0.0015,-3.7
1.381,-0.003,-0.0015,0.0,0.0022,-3.7
1.382,-0.0046,-0.0008,0.0015,0.0015,-3.7
1.383,-0.0046,0.0015,0.0045,0.003,-3.7
1.384,-0.0015,0.0022,0.0037,0.0037,-3.7
1.385,-0.0008,0.0037,0.003,0.003,-3.7
1.386,-0.0008,0.0045,0.0045,0.003,-3.7
1.387,-0.0008,0.003,0.0045,0.0022,-3.7
1.388,-0.0015,0.0045,0.0067,0.003,-3.7
1.389,0.0,0.0045,0.0075,0.0045,-3.7
1.39,0.0015,0.0022,0.0067,0.0067,-3.8
1.391,0.0037,-0.0008,0.0075,0.0067,-3.8
1.392,0.0037,-0.0015,0.0097,0.0045,-3.8
1.393,0.0007,-0.0008,0.0097,0.006,-3.8
1.394,-0.0008,-0.0008,0.0105,0.0052,-3.8
1.395,-0.0023,-0.0023,0.0105,0.006,-3.8
1.396,-0.003,-0.0046,0.009,0.0045,-3.8
1.397,-0.003,-0.0083,0.0052,0.0045,-3.8
1.398,-0.0015,-0.0195,0.0052,0.0045,-3.9
1.399,-0.0015,-0.0361,0.006,0.0015,-3.9
1.4,-0.0008,-0.0465,0.0067,0.003,-3.9
1.401,0.0,-0.0518,0.006,0.003,-3.9
1.402,-0.0023,-0.0533,0.0082,0.003,-3.9
1.403,-0.0008,-0.0495,0.009,0.0007,-3.9
1.404,-0.0015,-0.0473,0.0082,-0.0038,-3.8
1.405,-0.003,-0.045,0.0067,-0.0015,-3.8
1.406,-0.003,-0.0383,0.0067,0.0015,-3.8
1.407,-0.0015,-0.0315,0.0067,0.0097,-3.8
1.408,0.0,-0.0278,0.0045,0.0142,-3.7
1.409,-0.0008,-0.0233,0.003,0.0135,-3.7
1.41,-0.0015,-0.0165,0.0015,0.009,-3.7
1.411,-0.0008,-0.0135,-0.0015,0.0007,-3.7
1.412,-0.0008,-0.0091,-0.0023,-0.0023,-3.7
1.413,-0.0038,-0.0053,-0.003,-0.0023,-3.6
1.414,-0.0046,0.0015,-0.003,0.0,-3.6
1.415,-0.003,0.0052,-0.0015,0.0015,-3.6
1.416,-0.003,0.0045,-0.0015,0.0015,-3.6
1.417,-0.0023,0.0082,0.0,0.0022,-3.6
1.418,-0.0008,0.0082,-0.0015,0.0,-3.6
1.419,0.0015,0.0105,-0.0008,0.0007,-3.5
1.42,0.0022,0.012,-0.0008,-0.0015,-3.5
1.421,0.0015,0.009,0.0015,-0.0023,-3.5
1.422,0.0015,0.0082,0.0045,-0.0015,-3.5
1.423,0.0007,0.0082,0.0045,0.0,-3.5
1.424,0.0007,0.0075,0.0045,0.0007,-3.5
1.425,0.0015,0.0067,0.003,0.0,-3.5
1.426,0.0022,0.0067,0.0007,0.0007,-3.5
1.427,0.0022,0.0082,0.0007,-0.0008,-3.5
1.428,0.0,0.012,0.0,-0.0015,-3.5
1.429,-0.0008,0.0142,-0.0008,-0.0008,-3.5
1.43,-0.0008,0.0157,-0.0008,0.0,-3.5
1.431,0.0015,0.0142,-0.0015,0.0007,-3.5
1.432,0.0015,0.0142,-0.0046,0.0007,-3.5
1.433,0.0007,0.015,-0.0023,0.0,-3.5
1.434,0.0007,0.0127,0.0007,-0.0015,-3.5
1.435,-0.0008,0.0135,0.0007,-0.0023,-3.5
1.436,0.0,0.0142,0.0,-0.0046,-3.5
1.437,-0.0015,0.0142,0.0015,-0.0046,-3.5
1.438,-0.003,0.0172,0.0022,-0.0046,-3.5
1.439,-0.0015,0.015,0.0045,-0.0075,-3.5
1.44,0.0,0.0127,0.003,-0.0083,-3.6
1.441,0.0022,0.0127,0.0037,-0.0091,-3.6
1.442,0.0037,0.0127,0.0045,-0.0091,-3.6
1.443,0.0015,0.0127,0.003,-0.0105,-3.6
1.444,0.0007,0.0112,0.0015,-0.0075,-3.6
1.445,-0.0008,0.0097,0.0015,-0.0015,-3.6
1.446,-0.0008,0.0067,-0.0008,0.0052,-3.6
1.447,-0.0015,0.0067,0.0,0.012,-3.6
1.448,-0.003,0.0067,0.0007,0.003,-3.6
1.449,-0.003,0.0052,0.0,-0.003,-3.6
1.45,0.0,0.0045,0.0015,-0.0015,-3.7
1.451,0.0022,-0.0015,0.0007,0.0007,-3.7
1.452,0.0,-0.0083,-0.0008,0.0022,-3.7
1.453,-0.0008,-0.012,0.0007,0.0,-3.7
1.454,-0.0008,-0.012,0.0007,-0.0015,-3.7
1.455,-0.0008,-0.0128,0.0007,-0.0046,-3.7
1.456,-0.0008,-0.012,-0.0015,-0.0091,-3.8
1.457,-0.003,-0.0105,-0.003,-0.0083,-3.8
1.458,-0.003,-0.0098,-0.003,-0.0023,-3.8
1.459,-0.0038,-0.006,-0.003,0.0015,-3.8
1.46,-0.0046,0.0,-0.0008,0.0007,-3.9
1.461,-0.0046,0.0195,-0.0015,-0.0015,-3.9
1.462,-0.0023,0.0442,-0.0008,-0.0046,-3.9
1.463,-0.0008,0.0397,-0.0023,-0.0053,-3.9
1.464,-0.0038,0.018,-0.0023,-0.0053,-3.9
1.465,-0.003,0.0015,-0.0015,-0.0053,-3.9
1.466,-0.0015,-0.0068,0.0,-0.0046,-3.9
1.467,-0.0046,-0.0083,0.0015,-0.003,-3.9
1.468,-0.0053,-0.0091,0.0015,-0.003,-3.9
1.469,-0.003,0.0015,0.0045,0.0,-3.9
1.47,-0.0008,0.0105,0.0007,0.006,-4.0
1.471,-0.0008,-0.003,0.0,0.0067,-4.0
1.472,0.0007,-0.0128,-0.0015,-0.0046,-4.0
1.473,0.0007,-0.0135,-0.0008,-0.0165,-4.0
1.474,0.003,-0.0128,0.0022,-0.0165,-4.0
1.475,0.0045,-0.0105,0.0015,-0.0165,-4.0
1.476,0.003,-0.0203,0.0007,-0.0181,-4.0
1.477,0.0015,-0.0361,0.0007,-0.0203,-4.0
1.478,0.0015,-0.0473,-0.0015,-0.0263,-4.1
1.479,0.0007,-0.0518,-0.0046,-0.0256,-4.1
1.48,0.0007,-0.0525,-0.0038,-0.012,-4.1
1.481,-0.0008,-0.0428,-0.0015,0.0127,-4.1
1.482,-0.0015,-0.0285,-0.003,0.0307,-4.1
1.483,0.0007,-0.0293,-0.0038,0.0397,-4.1
1.484,0.0007,-0.0308,-0.0046,0.0465,-4.1
1.485,-0.0008,-0.0233,-0.0046,0.0547,-4.1
1.486,0.0007,-0.0203,-0.003,0.0607,-4.1
1.487,0.0015,-0.0181,-0.0015,0.0607,-4.1
1.488,0.0007,-0.0165,0.0007,0.0607,-4.1
1.489,0.0,-0.0105,0.003,0.0555,-4.1
1.49,0.0,-0.0038,0.0052,0.051,-4.1
1.491,-0.0008,-0.0046,0.0045,0.0457,-4.1
1.492,-0.0015,-0.0046,0.0052,0.0397,-4.1
1.493,-0.0008,-0.0015,0.0052,0.0367,-4.1
1.494,0.0,0.0022,0.003,0.0345,-4.1
1.495,0.0022,-0.0023,0.0052,0.0352,-4.0
1.496,0.003,-0.0075,0.006,0.0292,-4.0
1.497,0.0015,-0.0105,0.003,0.0045,-4.0
1.498,0.0007,-0.0128,0.0007,-0.012,-4.0
1.499,0.0,-0.0165,-0.0015,-0.012,-4.0
1.5,-0.0015,-0.015,-0.0015,-0.0091,-4.0
1.501,-0.0046,0.0022,0.0007,-0.0053,-4.0
1.502,-0.0038,0.0165,0.003,0.0067,-4.0
1.503,-0.003,0.0232,0.003,0.0315,-4.0
1.504,-0.0015,0.0397,0.0045,0.0367,-4.0
1.505,0.0,0.0472,0.0052,0.0285,-4.0
1.506,0.0,0.039,0.0045,0.033,-4.0
1.507,0.0007,0.042,0.0067,0.0442,-4.0
1.508,0.0007,0.0292,0.0075,0.0457,-4.0
1.509,0.0007,0.0157,0.006,0.039,-4.0
1.51,-0.0008,0.0135,0.0067,0.009,-3.9
1.511,-0.0008,-0.0053,0.0052,-0.0263,-3.9
1.512,0.0007,0.0052,0.0045,-0.0308,-3.9
1.513,-0.0008,0.0285,0.003,-0.0383,-3.9
1.514,-0.0015,0.039,0.0037,-0.0405,-3.9
1.515,-0.0008,0.0367,0.003,-0.0398,-3.9
1.516,-0.003,0.0165,0.0015,-0.042,-3.9
1.517,-0.0038,0.018,0.0015,-0.0405,-3.9
1.518,-0.0046,0.0195,-0.0008,-0.0495,-3.9
1.519,-0.003,-0.0023,-0.0023,-0.0713,-3.9
1.52,0.0,-0.0091,-0.0015,-0.0908,-3.9
1.521,-0.0015,-0.0128,0.0,-0.081,-3.9
1.522,-0.003,-0.0218,-0.0008,-0.0668,-3.9
1.523,-0.0015,-0.0218,-0.003,-0.0458,-3.9
1.524,-0.0015,-0.021,-0.0008,-0.024,-3.9
1.525,-0.0015,-0.0158,-0.0015,-0.0105,-3.9
1.526,-0.0023,-0.0158,0.0007,0.0082,-3.9
1.527,-0.0015,-0.0181,0.0007,0.0225,-3.9
1.528,0.0,-0.0075,0.0007,0.0495,-3.9
1.529,0.0007,0.0097,0.0015,0.0705,-3.9
1.53,0.0007,0.033,0.0022,0.054,-3.9
1.531,0.0,0.0397,0.0037,0.0105,-3.9
1.532,-0.0015,0.009,0.0022,-0.0203,-3.9
1.533,-0.0023,-0.015,0.003,-0.0428,-3.9
1.534,-0.0038,-0.0113,0.0,-0.0578,-3.9
1.535,-0.0038,-0.0023,0.0,-0.0353,-3.9
1.536,-0.0015,0.0165,0.0007,-0.0158,-3.9
1.537,-0.0008,0.018,-0.0023,-0.0165,-3.9
1.538,-0.0015,-0.0015,-0.0008,-0.0015,-3.9
1.539,-0.0038,-0.0143,0.0,0.027,-3.9
1.54,-0.0015,-0.0165,-0.0008,0.0442,-3.9
1.541,-0.0008,-0.0233,-0.0015,0.0405,-3.9
1.542,-0.0015,-0.0233,-0.0015,0.0232,-3.9
1.543,0.0,-0.0068,-0.0008,0.0082,-3.9
1.544,-0.0015,0.0007,0.0,-0.0188,-3.9
1.545,-0.0008,-0.0068,0.0015,-0.0488,-3.9
1.546,0.0,-0.0165,0.0037,-0.0413,-3.9
1.547,0.0007,-0.0293,0.0037,-0.0173,-3.9
1.548,0.0007,-0.0181,0.0052,0.003,-3.9
1.549,0.0015,0.009,0.0067,0.027,-3.9
1.55,0.0007,0.0195,0.0067,0.0427,-3.9
1.551,-0.0008,0.009,0.0075,0.0532,-3.9
1.552,0.0,-0.0165,0.0075,0.039,-3.9
1.553,0.0015,-0.012,0.009,0.0007,-3.9
1.554,0.0015,-0.0068,0.0082,-0.0143,-3.9
1.555,0.0,0.003,0.0067,-0.0075,-3.9
1.556,-0.0008,0.0217,0.0045,-0.0053,-3.9
1.557,-0.0015,0.0202,0.0052,-0.006,-3.9
1.558,-0.0046,0.0135,0.0075,-0.0068,-3.9
1.559,-0.0068,-0.0188,0.009,-0.0046,-3.9
1.56,-0.0046,-0.0443,0.009,-0.0053,-4.0
1.561,-0.0015,-0.0525,0.009,-0.0128,-4.0
1.562,-0.0008,-0.0578,0.0067,-0.0143,-4.0
1.563,0.0,-0.0503,0.0045,-0.0143,-4.0
1.564,-0.0008,-0.0383,0.0037,-0.012,-4.0
1.565,-0.0008,-0.0405,0.0015,-0.0053,-4.0
1.566,-0.0008,-0.0383,0.0022,0.003,-4.0
1.567,-0.0008,-0.0278,0.0015,0.0157,-4.0
1.568,0.0,-0.0256,0.0007,0.024,-4.0
1.569,-0.0008,-0.0218,-0.0008,0.0165,-4.0
1.57,-0.0015,-0.0181,-0.0023,0.0045,-4.0
1.571,-0.0015,-0.0091,-0.003,0.0015,-4.0
1.572,0.0,-0.0068,-0.003,0.0007,-4.0
1.573,0.0022,-0.0068,-0.0046,0.0007,-4.0
1.574,0.0015,-0.0053,-0.0053,0.0007,-4.0
1.575,0.0015,-0.0015,-0.0046,0.0037,-4.0
1.576,0.0,0.0022,-0.0053,0.0067,-4.0
1.577,-0.0015,0.0037,-0.0046,0.0067,-4.0
1.578,-0.0015,0.0097,-0.0053,0.0052,-4.0
1.579,-0.0008,0.0127,-0.0068,0.003,-4.0
1.58,0.0,0.018,-0.0068,0.0015,-4.0
1.581,-0.0008,0.024,-0.006,0.0015,-4.0
1.582,0.0007,0.03,-0.0046,0.0007,-4.0
1.583,0.0015,0.0345,-0.003,-0.0008,-4.0
1.584,0.0007,0.0277,-0.0008,-0.003,-4.0
1.585,0.0007,0.0247,-0.0008,-0.0008,-4.0
1.586,-0.0008,0.021,0.0015,0.009,-4.0
1.587,-0.0015,0.0165,0.0015,0.0135,-4.0
1.588,-0.0015,0.0112,0.0007,0.0127,-4.0
1.589,-0.0015,0.009,0.0015,0.0082,-4.0
1.59,-0.0015,0.0097,-0.0008,0.006,-4.0
1.591,-0.0015,0.009,-0.0008,0.003,-4.0
1.592,0.0,0.0075,-0.0015,0.0,-4.0
1.593,0.0,0.0022,-0.0023,-0.0023,-4.0
1.594,0.0007,-0.0008,-0.0008,-0.0098,-4.0
1.595,0.0022,0.0022,0.0007,-0.0113,-4.0
1.596,0.003,-0.003,0.0007,-0.0046,-4.0
1.597,0.0022,-0.0091,0.0015,0.0022,-4.0
1.598,0.0007,-0.0113,0.0007,0.0075,-4.0
1.599,-0.0015,-0.0091,-0.0015,0.009,-4.0
1.6,-0.0023,0.0052,-0.0023,0.0105,-4.0
1.601,-0.0015,0.0187,-0.0015,0.0082,-4.0
1.602,-0.003,0.0157,0.0007,0.0052,-4.0
1.603,-0.0046,-0.003,0.0015,0.0037,-3.9
1.604,-0.0038,0.0157,0.0037,0.0052,-3.9
1.605,-0.0023,0.033,0.003,0.0037,-3.9
1.606,-0.0015,0.0067,0.0015,-0.003,-3.9
1.607,-0.003,-0.0053,0.0022,-0.0075,-3.9
1.608,-0.0038,-0.0128,0.0015,-0.003,-3.9
1.609,-0.003,-0.0091,0.0022,0.0097,-3.9
1.61,-0.003,0.0157,0.003,0.0292,-3.8
1.611,-0.0015,0.0345,0.0045,0.0442,-3.8
1.612,0.0,0.0375,0.0052,0.0442,-3.8
1.613,0.0007,0.0255,0.006,0.0292,-3.8
1.614,0.0007,0.0015,0.0045,0.0082,-3.8
1.615,-0.0015,-0.0181,0.003,-0.0008,-3.8
1.616,-0.0015,-0.0188,0.0022,-0.0023,-3.8
1.617,-0.0008,-0.0218,0.0015,-0.0046,-3.8
1.618,-0.0015,-0.0173,0.0015,-0.0008,-3.7
1.619,0.0,-0.0181,0.003,-0.0015,-3.7
1.62,-0.0008,-0.0173,0.0022,-0.0046,-3.7
1.621,0.0,-0.0128,0.0015,-0.0038,-3.7
1.622,-0.0015,-0.0128,0.0015,-0.003,-3.7
1.623,-0.003,-0.0098,-0.0015,-0.003,-3.7
1.624,-0.003,-0.0105,-0.0008,-0.003,-3.7
1.625,-0.0046,-0.0083,-0.0023,-0.0008,-3.7
1.626,-0.0046,-0.0091,-0.0038,-0.0015,-3.7
1.627,-0.0046,-0.0091,-0.003,-0.0015,-3.6
1.628,-0.006,-0.0083,-0.0053,0.003,-3.6
1.629,-0.0046,-0.0053,-0.006,0.0037,-3.6
1.63,-0.003,-0.0046,-0.006,-0.0008,-3.6
1.631,-0.0046,-0.003,-0.0053,-0.0046,-3.6
1.632,-0.003,0.0007,-0.0046,-0.0083,-3.6
1.633,-0.0008,0.0,-0.003,-0.0083,-3.6
1.634,-0.0015,-0.0008,-0.0008,-0.0023,-3.6
1.635,-0.0008,0.0,-0.0015,-0.0008,-3.6
1.636,0.0015,0.0015,-0.0008,-0.0008,-3.6
1.637,0.0037,-0.0008,0.0007,-0.0015,-3.6
1.638,0.0045,-0.0015,0.003,-0.003,-3.5
1.639,0.006,-0.003,0.003,-0.0008,-3.5
1.64,0.0052,-0.0091,0.0015,-0.0015,-3.5
1.641,0.0015,-0.0195,-0.0008,-0.0015,-3.5
1.642,0.0015,-0.0293,0.0,-0.0008,-3.5
1.643,0.0037,-0.0368,-0.0008,0.0007,-3.5
1.644,0.003,-0.0443,0.0007,0.0,-3.5
1.645,0.0015,-0.045,0.0015,-0.0015,-3.4
1.646,0.0007,-0.0443,0.0007,-0.003,-3.4
1.647,0.0,-0.0405,0.0007,-0.0053,-3.4
1.648,-0.0008,-0.033,-0.0008,-0.0068,-3.4
1.649,0.0,-0.0135,-0.0015,-0.0091,-3.4
1.65,-0.0008,0.0045,-0.003,-0.012,-3.3
1.651,-0.0023,-0.0068,-0.003,-0.0158,-3.3
1.652,-0.0015,-0.0128,-0.003,-0.0165,-3.3
1.653,-0.003,-0.0091,-0.0038,-0.003,-3.3
1.654,-0.0038,-0.0083,-0.0023,0.006,-3.3
1.655,-0.003,-0.0038,-0.0038,-0.006,-3.3
1.656,-0.0015,-0.0046,-0.0046,-0.006,-3.2
1.657,0.0007,0.009,-0.0038,0.009,-3.2
1.658,0.0015,0.039,-0.0008,0.0262,-3.2
1.659,0.0015,0.045,-0.0008,0.0532,-3.2
1.66,0.0007,0.0277,-0.0008,0.0562,-3.2
1.661,0.0015,0.0157,0.003,0.012,-3.2
1.662,0.003,0.0022,0.0037,-0.048,-3.2
1.663,0.0007,-0.0023,0.003,-0.0593,-3.2
1.664,-0.0008,0.0015,0.003,-0.042,-3.1
1.665,-0.0015,0.0045,0.003,-0.027,-3.1
1.666,0.0,0.0202,0.0045,-0.015,-3.1
1.667,0.0015,0.0195,0.0052,-0.0046,-3.1
1.668,0.0,0.009,0.0052,0.012,-3.1
1.669,-0.0015,0.0082,0.006,0.039,-3.0
1.67,-0.0015,0.0067,0.0052,0.078,-3.0
1.671,0.0,0.0187,0.006,0.0757,-3.0
1.672,-0.0008,0.0262,0.003,0.0292,-3.0
1.673,-0.0008,0.021,0.003,-0.0068,-3.0
1.674,-0.0015,0.012,0.0022,-0.0158,-2.9
1.675,-0.0015,0.0052,0.0045,-0.0195,-2.9
1.676,0.0007,0.0052,0.0067,-0.0181,-2.9
1.677,-0.0008,0.0037,0.0052,-0.0173,-2.9
1.678,-0.0015,0.0045,0.006,-0.0165,-2.9
1.679,-0.0008,0.0015,0.0045,-0.0128,-2.8
1.68,-0.0023,0.0,0.0037,-0.0135,-2.8
1.681,-0.0046,0.0015,0.003,-0.0068,-2.8
1.682,-0.0038,-0.0053,0.0052,0.0052,-2.8
1.683,-0.003,-0.0053,0.0067,0.009,-2.8
1.684,-0.0023,0.0195,0.0067,-0.0008,-2.8
1.685,0.0007,0.0405,0.0052,-0.0075,-2.7
1.686,0.0022,0.0067,0.0015,-0.015,-2.7
1.687,0.0015,-0.0158,0.003,-0.0181,-2.7
1.688,0.0022,-0.0068,0.003,-0.0083,-2.7
1.689,0.0007,-0.0143,0.0,-0.0046,-2.7
1.69,0.0007,-0.0015,-0.003,-0.0143,-2.7
1.691,-0.0008,0.0007,-0.0038,-0.024,-2.7
1.692,-0.0015,0.0052,-0.0023,-0.0105,-2.7
1.693,-0.0008,0.018,-0.003,0.0015,-2.7
1.694,-0.0015,-0.003,-0.0015,-0.0008,-2.7
1.695,-0.003,-0.0143,-0.003,-0.0015,-2.6
1.696,-0.0038,-0.0091,-0.0053,-0.0038,-2.6
1.697,-0.003,0.0,-0.0053,-0.0038,-2.6
1.698,-0.0015,0.0007,-0.0046,-0.0023,-2.6
1.699,-0.0015,-0.0098,-0.003,0.0007,-2.6
1.7,-0.0015,-0.0075,-0.0038,0.0007,-2.6
1.701,-0.003,-0.0083,-0.0053,0.003,-2.6
1.702,-0.0015,-0.0068,-0.0068,0.0037,-2.5
1.703,0.0,-0.0046,-0.0046,0.003,-2.5
1.704,0.0007,-0.0068,-0.003,0.0075,-2.5
1.705,0.0,-0.0053,-0.0046,0.0082,-2.5
1.706,-0.0008,-0.0053,-0.0015,0.0082,-2.5
1.707,-0.0008,-0.0046,-0.0008,0.0067,-2.5
1.708,-0.0008,-0.0053,-0.0008,0.0045,-2.5
1.709,0.0007,-0.0046,0.0007,0.0015,-2.4
1.71,-0.0008,-0.003,0.0,0.0022,-2.4
1.711,-0.0015,-0.0008,-0.0008,0.0045,-2.4
1.712,-0.0015,-0.0015,0.0,0.0045,-2.4
1.713,-0.0015,-0.0015,0.0,0.0045,-2.4
1.714,-0.003,0.0015,-0.0008,0.0052,-2.4
1.715,-0.0046,0.0007,-0.0015,0.006,-2.3
1.716,-0.0046,0.0007,-0.0008,0.0045,-2.3
1.717,-0.003,-0.0008,0.0007,0.0045,-2.3
1.718,-0.0046,-0.0008,0.0022,0.0052,-2.3
1.719,-0.0053,-0.0008,0.003,0.0052,-2.3
1.72,0.0,-0.0015,0.0037,0.0045,-2.3
1.721,0.0007,-0.0008,0.0045,0.0037,-2.3
1.722,0.0007,0.0007,0.0052,0.0052,-2.3
1.723,0.0015,0.0007,0.0045,0.0052,-2.3
1.724,0.0015,-0.0008,0.0037,0.0052,-2.2
1.725,0.0015,-0.003,0.003,0.0082,-2.2
1.726,0.0,-0.0083,0.003,0.0067,-2.2
1.727,0.0015,-0.0105,0.0037,0.0052,-2.2
1.728,0.0015,-0.012,0.0045,0.006,-2.2
1.729,-0.0008,-0.0128,0.006,0.0052,-2.1
1.73,-0.0008,-0.0091,0.0045,0.0037,-2.1
1.731,0.0007,-0.0083,0.0037,0.0045,-2.1
1.732,-0.0008,-0.012,0.0052,0.0037,-2.1
1.733,-0.0023,-0.0113,0.0052,0.0037,-2.1
1.734,-0.0015,-0.015,0.0045,0.0037,-2.0
1.735,0.0007,-0.0218,0.0037,0.0037,-2.0
1.736,0.0015,-0.0143,0.0037,0.003,-2.0
1.737,0.0022,-0.0098,0.0037,0.0015,-2.0
1.738,0.0015,-0.03,0.0045,0.0015,-2.0
1.739,-0.0008,-0.0428,0.003,0.0015,-1.9
1.74,-0.0015,-0.0443,0.0,0.0045,-1.9
1.741,-0.0015,-0.0465,-0.0008,0.0045,-1.9
1.742,-0.0015,-0.0428,-0.0008,0.0045,-1.9
1.743,-0.0008,-0.042,-0.0015,0.0052,-1.9
1.744,0.0,-0.033,-0.0008,0.0067,-1.8
1.745,-0.0008,-0.0218,-0.0015,0.0067,-1.8
1.746,-0.003,-0.0195,-0.0015,0.0045,-1.8
1.747,-0.0015,-0.0181,-0.0015,0.0037,-1.8
1.748,-0.0015,-0.0173,-0.0015,0.0067,-1.8
1.749,-0.0008,-0.0135,-0.0023,0.0052,-1.8
1.75,-0.0008,-0.0091,-0.0053,0.0045,-1.8
1.751,-0.0015,-0.0023,-0.0053,0.0067,-1.8
1.752,-0.0015,0.0037,-0.0046,0.006,-1.7
1.753,-0.003,0.009,-0.003,0.0037,-1.7
1.754,-0.003,0.0142,-0.0023,0.0022,-1.7
1.755,-0.0008,0.0172,-0.003,0.0015,-1.7
1.756,-0.0015,0.0217,-0.0023,0.003,-1.7
1.757,-0.003,0.024,-0.0015,0.0015,-1.6
1.758,-0.0015,0.0217,-0.0023,0.0015,-1.6
1.759,-0.0008,0.0217,-0.0015,0.003,-1.6
1.76,0.0007,0.0225,-0.0008,0.003,-1.6
1.761,-0.0008,0.0217,-0.0008,0.0045,-1.6
1.762,0.0007,0.0202,0.0022,0.0067,-1.5
1.763,0.0007,0.0202,0.0007,0.0045,-1.5
1.764,-0.0008,0.0225,-0.0008,0.003,-1.5
1.765,0.0,0.0217,-0.0008,0.0045,-1.5
1.766,0.0007,0.0217,-0.0015,0.0045,-1.4
1.767,0.003,0.0195,-0.0008,0.003,-1.4
1.768,0.0015,0.0195,0.0015,0.0015,-1.4
1.769,0.0007,0.0172,0.0045,0.0007,-1.4
1.77,0.0007,0.0142,0.003,-0.0008,-1.4
1.771,0.0007,0.0127,0.0052,-0.0008,-1.4
1.772,0.0007,0.0105,0.0052,-0.0023,-1.4
1.773,0.0007,0.0105,0.003,-0.0008,-1.3
1.774,0.0007,0.0082,0.003,0.0007,-1.3
1.775,0.0007,0.0082,0.0022,0.003,-1.3
1.776,-0.0023,0.009,0.0037,0.003,-1.3
1.777,-0.0023,0.0082,0.0022,0.003,-1.2
1.778,-0.0046,0.0067,0.0007,0.0022,-1.2
1.779,-0.0053,0.0052,0.0015,0.003,-1.2
1.78,-0.003,0.0067,0.0022,0.006,-1.2
1.781,-0.0023,0.0075,0.0037,0.0045,-1.2
1.782,-0.003,0.0052,0.0045,0.003,-1.1
1.783,-0.003,0.0015,0.0045,0.003,-1.1
1.784,-0.0015,-0.003,0.003,0.0022,-1.1
1.785,-0.0008,-0.0046,0.0052,0.003,-1.0
1.786,-0.0008,-0.0046,0.0052,0.0015,-1.0
1.787,-0.0008,-0.0046,0.0037,0.003,-1.0
1.788,-0.0015,-0.0053,0.0007,0.003,-1.0
1.789,0.0,-0.006,0.0007,0.003,-0.9
1.79,0.0015,-0.006,0.0007,0.0022,-0.9
1.791,0.0007,-0.0053,0.0,0.0015,-0.9
1.792,0.0037,-0.0068,0.0015,0.0015,-0.9
1.793,0.003,-0.0046,0.0007,0.0022,-0.9
1.794,0.0007,-0.0023,-0.0015,0.0015,-0.9
1.795,0.0022,-0.0046,-0.0008,-0.0015,-0.8
1.796,0.0007,-0.0053,-0.0008,-0.003,-0.8
1.797,0.0,-0.006,0.0,-0.0038,-0.8
1.798,0.0,-0.0053,0.0015,-0.0046,-0.8
1.799,0.0007,-0.0046,0.003,-0.0053,-0.7
1.8,0.0007,-0.0015,0.0022,-0.0046,-0.7
1.801,-0.0015,0.0007,0.0015,-0.0053,-0.7
1.802,-0.0015,0.003,0.0,-0.0008,-0.7
1.803,-0.003,0.0045,0.0,0.006,-0.6
1.804,-0.0053,-0.003,0.0015,0.0075,-0.6
1.805,-0.0046,-0.0068,0.0,0.0075,-0.6
1.806,-0.003,-0.0091,-0.0015,0.009,-0.6
1.807,-0.0023,-0.0105,-0.0015,0.0105,-0.5
1.808,-0.003,-0.0105,-0.0015,0.0105,-0.5
1.809,-0.0015,-0.012,-0.0008,0.0112,-0.5
1.81,-0.0008,-0.0105,-0.0015,0.003,-0.5
1.811,-0.0023,-0.0135,-0.0023,-0.0008,-0.5
1.812,-0.0038,-0.0158,-0.003,-0.0008,-0.4
1.813,-0.0015,-0.0113,-0.003,-0.0046,-0.4
1.814,-0.0015,-0.0068,-0.0015,-0.0046,-0.4
1.815,-0.0015,-0.0038,-0.0008,-0.006,-0.4
1.816,-0.0015,-0.0015,-0.0023,-0.0053,-0.3
1.817,-0.0046,0.0015,-0.0008,-0.006,-0.3
1.818,-0.0038,-0.0023,0.0007,-0.0046,-0.3
1.819,-0.003,-0.0053,0.0015,-0.003,-0.3
1.82,-0.003,-0.0091,0.003,-0.003,-0.2
1.821,-0.0008,-0.021,0.0015,0.0007,-0.2
1.822,-0.0008,-0.0315,0.003,0.003,-0.2
1.823,-0.0038,-0.0383,0.003,0.0007,-0.1
1.824,-0.003,-0.0436,0.0022,0.0,-0.1
1.825,-0.0046,-0.0465,0.0,0.0022,-0.1
1.826,-0.0038,-0.0458,-0.0015,0.0,-0.1
1.827,-0.0023,-0.0405,-0.0015,-0.0008,0.0
1.828,-0.003,-0.0346,-0.0015,0.0,0.0
1.829,-0.0023,-0.0293,-0.0015,-0.003,0.0
1.83,-0.0015,-0.024,-0.0008,-0.003,0.0
1.831,0.0007,-0.0165,0.003,0.0015,0.0
1.832,0.0015,0.0052,0.003,0.0015,0.1
1.833,0.0015,0.024,0.0022,-0.003,0.1
1.834,0.0022,0.0052,0.0045,-0.0068,0.1
1.835,0.003,-0.0008,0.0045,-0.0023,0.1
1.836,0.0037,0.0097,0.0052,0.009,0.2
1.837,0.0022,0.0045,0.006,0.0157,0.2
1.838,0.0022,0.012,0.0082,0.0225,0.2
1.839,0.0015,0.0075,0.009,0.03,0.2
1.84,0.0037,0.0052,0.006,0.027,0.3
1.841,0.003,0.0105,0.0052,0.012,0.3
1.842,0.0015,0.0105,0.0052,0.0015,0.3
1.843,0.0015,0.0202,0.0045,-0.0008,0.3
1.844,0.0007,0.0142,0.003,-0.006,0.4
1.845,-0.0008,-0.0015,0.0015,-0.0143,0.4
1.846,-0.0015,-0.0075,0.0007,-0.0203,0.4
1.847,-0.003,0.0052,0.0022,-0.0158,0.4
1.848,-0.0008,0.0007,0.0037,-0.0181,0.4
1.849,0.0,-0.0091,0.003,-0.024,0.4
1.85,-0.0008,-0.0075,0.003,-0.021,0.4
1.851,-0.0023,-0.0046,0.0015,-0.0143,0.4
1.852,-0.0023,0.0577,0.0,0.003,0.5
1.853,0.0,0.135,0.0007,0.0352,0.5
1.854,0.003,0.129,0.0007,0.0555,0.5
1.855,0.0052,0.0667,0.003,0.042,0.5
1.856,0.0037,0.0292,0.0007,0.0195,0.5
1.857,0.003,0.009,-0.0015,0.0135,0.6
1.858,0.0022,-0.0038,0.0007,0.0187,0.6
1.859,-0.0008,-0.0046,0.0,0.021,0.6
1.86,-0.003,-0.0135,-0.0008,0.012,0.6
1.861,-0.003,-0.0105,-0.0008,-0.0053,0.6
1.862,-0.0008,-0.0143,0.0,-0.012,0.7
1.863,0.0007,-0.0165,0.0007,-0.0128,0.7
1.864,0.0015,-0.0158,0.0007,-0.0128,0.7
1.865,0.0007,-0.015,0.0015,-0.0128,0.7
1.866,0.0,-0.0105,0.0,-0.0128,0.7
1.867,-0.0008,-0.0083,0.0007,-0.0105,0.7
1.868,-0.0015,-0.003,0.0007,-0.0068,0.7
1.869,-0.003,-0.0083,0.0,-0.0053,0.8
1.87,-0.0053,-0.0105,-0.0008,-0.006,0.8
1.871,-0.0046,-0.0091,-0.0015,-0.006,0.8
1.872,-0.0046,-0.0068,0.0,-0.0068,0.8
1.873,-0.0015,-0.0023,0.0022,-0.0053,0.8
1.874,-0.0008,-0.003,0.003,-0.0038,0.8
1.875,-0.0023,-0.0046,0.0015,-0.0015,0.9
1.876,-0.0015,-0.0053,0.0037,-0.0008,0.9
1.877,-0.0038,-0.0046,0.0052,-0.0015,0.9
1.878,-0.0053,-0.0053,0.006,-0.0015,0.9
1.879,-0.0038,-0.0053,0.0052,-0.0008,0.9
1.88,-0.003,-0.0053,0.0045,-0.0008,0.9
1.881,-0.0015,-0.0053,0.0052,-0.0015,0.9
1.882,-0.0046,-0.0046,0.0052,-0.0008,0.9
1.883,-0.0091,-0.0038,0.0045,-0.0008,0.9
1.884,-0.0143,-0.003,0.0037,0.0,1.0
1.885,-0.0105,-0.006,0.003,0.0007,1.0
1.886,-0.003,-0.0091,0.0037,0.0007,1.0
1.887,0.0007,-0.0113,0.003,-0.0008,1.0
1.888,0.0082,-0.012,0.0015,0.0007,1.1
1.889,0.0135,-0.0113,0.0,0.003,1.1
1.89,0.015,-0.0128,0.0007,0.0127,1.1
1.891,0.0112,-0.0128,0.0022,0.0315,1.1
1.892,0.0105,-0.0135,0.0015,0.0352,1.1
1.893,0.0082,-0.0098,0.0007,0.018,1.2
1.894,0.0052,-0.0023,-0.0023,0.0045,1.2
1.895,0.0022,0.0015,-0.003,-0.0046,1.2
1.896,-0.003,0.0015,-0.0023,-0.0105,1.2
1.897,-0.0083,-0.0008,-0.0015,-0.0143,1.3
1.898,-0.012,-0.0023,-0.0008,-0.024,1.3
1.899,-0.0105,-0.003,-0.003,-0.0248,1.3
1.9,-0.0075,-0.0015,-0.003,-0.012,1.3
1.901,-0.0053,-0.0008,-0.0015,-0.0046,1.3
1.902,-0.003,0.009,-0.0023,0.0007,1.3
1.903,-0.003,0.0127,-0.003,0.0022,1.4
1.904,0.0015,0.0037,-0.0046,0.0015,1.4
1.905,0.0007,-0.0015,-0.0038,0.0045,1.4
1.906,-0.0023,-0.0173,-0.0046,0.0037,1.4
1.907,-0.0008,-0.033,-0.0023,0.0045,1.5
1.908,-0.0008,-0.0398,-0.0015,0.0045,1.5
1.909,0.0007,-0.039,-0.003,0.003,1.5
1.91,0.0022,-0.0338,-0.0046,0.0007,1.6
1.911,0.0022,-0.0308,-0.0038,0.0015,1.6
1.912,0.0015,-0.0361,-0.0023,0.0045,1.6
1.913,0.0015,-0.0353,-0.003,0.0037,1.6
1.914,0.0007,-0.0308,-0.0023,0.003,1.7
1.915,-0.0015,-0.0256,0.0007,0.003,1.7
1.916,-0.003,-0.0203,0.003,0.003,1.7
1.917,-0.003,-0.021,0.0045,0.003,1.7
1.918,-0.003,-0.0165,0.0052,0.0045,1.8
1.919,-0.0023,-0.0218,0.0045,0.003,1.8
1.92,-0.003,-0.0248,0.006,0.0015,1.8
1.921,-0.0098,-0.0053,0.009,0.003,1.8
1.922,-0.0143,0.0135,0.0082,0.003,1.8
1.923,-0.0105,0.021,0.0097,0.0045,1.9
1.924,-0.003,0.0217,0.0067,0.0067,1.9
1.925,0.003,0.0142,0.003,0.0052,1.9
1.926,0.0075,0.0097,0.0,0.003,1.9
1.927,0.0127,0.0142,-0.0015,0.0015,1.9
1.928,0.015,0.015,-0.0008,0.0007,2.0
1.929,0.0157,0.009,-0.0008,0.0007,2.0
1.93,0.0112,0.0105,-0.0015,0.0007,2.0
1.931,0.0045,0.0172,-0.0015,0.0,2.0
1.932,0.0015,0.018,-0.0023,0.0007,2.1
1.933,-0.0008,0.0187,-0.0015,0.003,2.1
1.934,-0.0068,0.018,-0.0015,0.0052,2.1
1.935,-0.012,0.0157,-0.0015,0.0067,2.2
1.936,-0.0105,0.015,-0.0008,0.0045,2.2
1.937,-0.0083,0.0105,-0.0008,0.0037,2.2
1.938,-0.0083,0.0075,0.003,0.0015,2.2
1.939,-0.0091,0.0075,0.003,-0.0015,2.2
1.94,-0.0218,0.0105,0.0022,-0.0046,2.2
1.941,-0.0256,0.0127,0.0052,-0.0046,2.3
1.942,-0.012,0.012,0.0045,-0.003,2.3
1.943,0.0,0.0142,0.0045,-0.0015,2.3
1.944,0.009,0.0157,0.0045,0.0015,2.4
1.945,0.018,0.009,0.003,0.0007,2.4
1.946,0.0217,0.0052,0.0015,-0.0008,2.4
1.947,0.0255,-0.0015,-0.0015,-0.0023,2.5
1.948,0.0232,-0.0075,-0.0023,-0.0023,2.5
1.949,0.0157,-0.0105,-0.0038,-0.0015,2.5
1.95,0.0105,-0.012,-0.0038,-0.0023,2.6
1.951,0.0045,-0.0068,-0.0008,-0.0038,2.6
1.952,-0.0053,-0.0053,-0.0008,-0.0068,2.6
1.953,-0.012,-0.003,0.0015,-0.0098,2.6
1.954,-0.012,0.0007,0.006,-0.0091,2.7
1.955,-0.0135,0.0007,0.0052,-0.0068,2.7
1.956,-0.0113,0.0067,0.003,-0.003,2.7
1.957,-0.0098,0.009,0.003,0.009,2.8
1.958,-0.0068,0.012,0.003,0.0157,2.8
1.959,-0.0015,0.0082,0.0045,0.0195,2.8
1.96,-0.003,0.0105,0.003,0.0217,2.9
1.961,0.0015,0.0097,0.0015,0.0142,2.9
1.962,0.0015,-0.003,0.0007,0.015,3.0
1.963,-0.0015,-0.0015,0.0007,0.0195,3.0
1.964,-0.003,-0.0038,0.0007,0.0142,3.0
1.965,-0.0046,-0.0075,-0.0015,0.012,3.1
1.966,-0.003,-0.0091,-0.0015,0.0052,3.1
1.967,-0.0053,-0.0068,0.0,-0.003,3.1
1.968,-0.0053,0.0,-0.0008,-0.0053,3.2
1.969,-0.0046,0.003,-0.0015,-0.0038,3.2
1.97,-0.0053,0.0015,-0.0023,-0.0015,3.3
1.971,-0.003,-0.0015,-0.0008,0.0015,3.3
1.972,-0.003,-0.0015,0.0015,0.0015,3.3
1.973,-0.0008,-0.003,0.0015,0.0022,3.4
1.974,-0.0015,-0.0015,0.0007,-0.003,3.4
1.975,-0.0008,0.0007,0.0015,-0.0083,3.5
1.976,-0.0008,-0.0008,-0.0008,-0.0091,3.5
1.977,-0.0008,-0.0053,-0.0008,-0.0105,3.5
1.978,0.0007,-0.0091,-0.0008,-0.012,3.6
1.979,-0.0023,-0.0091,-0.0008,-0.0083,3.6
1.98,-0.0046,-0.0098,-0.0008,0.0022,3.6
1.981,-0.0053,-0.0083,-0.0015,0.0052,3.7
1.982,-0.0038,-0.0083,0.0015,0.0022,3.7
1.983,-0.0023,-0.0098,0.0015,0.0007,3.8
1.984,-0.003,-0.0128,0.0007,0.0037,3.8
1.985,-0.003,-0.015,0.0007,0.0135,3.9
1.986,-0.0015,-0.0143,0.0,0.0202,4.0
1.987,0.0007,-0.0015,-0.0008,0.0232,4.0
1.988,0.003,0.0112,-0.0015,0.0172,4.0
1.989,0.003,0.006,0.0,0.0127,4.1
1.99,0.003,0.0195,0.0007,0.0262,4.1
1.991,0.0045,0.0202,0.0022,0.0307,4.2
1.992,0.003,-0.0158,0.0045,0.012,4.2
1.993,0.0045,-0.0346,0.0022,-0.0038,4.3
1.994,0.003,-0.0308,0.0015,-0.0053,4.3
1.995,0.0015,-0.033,0.0007,-0.0038,4.4
1.996,0.003,-0.0458,0.0022,-0.0053,4.5
1.997,0.0022,-0.0405,0.0045,-0.0053,4.5
1.998,0.0022,-0.0338,0.003,-0.0083,4.5
1.999,0.003,-0.033,0.0022,-0.0105,4.6
2.0,0.0,-0.0308,0.0022,-0.012,4.6
2.001,0.0007,-0.033,0.0022,-0.015,4.7
2.002,0.0022,-0.0285,0.0015,-0.0165,4.8
2.003,0.003,-0.024,0.0007,-0.0218,4.9
2.004,0.0015,-0.0165,0.0007,-0.0278,4.9
2.005,0.0,-0.0083,0.0007,-0.0293,5.0
2.006,0.0015,-0.0083,-0.0008,-0.0256,5.1
2.007,0.0,-0.003,-0.0008,-0.0225,5.2
2.008,-0.003,0.0135,0.0007,-0.0165,5.2
2.009,-0.0023,0.0315,0.0015,-0.0158,5.3
2.01,-0.0008,0.0277,0.003,-0.006,5.4
2.011,-0.0008,0.033,0.0007,0.0165,5.4
2.012,-0.0023,0.0315,0.0007,0.0225,5.5
2.013,-0.0038,0.0105,-0.0015,0.021,5.6
2.014,-0.0053,0.006,-0.0046,0.0195,5.7
2.015,-0.0053,-0.0083,-0.003,0.0157,5.8
2.016,-0.0046,-0.0023,-0.0015,0.0217,5.8
2.017,-0.003,0.0127,-0.0023,0.0232,5.9
2.018,-0.003,0.0217,-0.003,0.0187,6.0
2.019,-0.0046,0.0345,-0.003,0.0285,6.0
2.02,-0.0046,0.0202,-0.0015,0.0382,6.1
2.021,-0.003,0.0142,-0.0015,0.0345,6.2
2.022,-0.003,0.012,-0.0008,0.0195,6.3
2.023,-0.0015,0.0007,-0.0008,-0.0083,6.4
2.024,-0.0008,0.0052,-0.0023,-0.033,6.4
2.025,0.0007,0.003,-0.0008,-0.0428,6.5
2.026,0.0007,0.0045,-0.0008,-0.0608,6.6
2.027,-0.0008,0.0097,-0.0015,-0.0608,6.7
2.028,0.0,0.0112,0.0015,-0.0443,6.8
2.029,-0.0008,0.0052,0.0007,-0.033,6.9
2.03,-0.0008,-0.015,0.0022,0.0015,7.0
2.031,0.0007,-0.0278,0.0015,0.0082,7.0
2.032,-0.0008,-0.0218,0.0007,0.0105,7.1
2.033,-0.0015,0.0015,0.0015,0.0525,7.2
2.034,-0.0008,0.0075,0.0007,0.075,7.3
2.035,0.0045,-0.0038,0.003,0.0637,7.4
2.036,0.0045,-0.0113,0.0007,0.0465,7.5
2.037,-0.0008,0.012,0.0015,0.0292,7.5
2.038,-0.0015,0.0502,0.0037,0.0172,7.6
2.039,-0.0008,0.0315,0.003,0.0337,7.7
2.04,-0.0015,0.0202,0.0052,0.0307,7.8
2.041,0.0,0.0277,0.0045,0.0052,7.9
2.042,-0.0008,0.0052,0.0052,-0.0353,8.0
2.043,-0.0015,0.009,0.0037,-0.0413,8.1
2.044,-0.0023,0.012,0.0015,-0.0165,8.3
2.045,-0.003,0.0082,0.0022,-0.0046,8.4
2.046,-0.0038,-0.0083,-0.0015,0.0112,8.5
2.047,-0.0046,-0.0128,-0.0023,0.0157,8.6
2.048,-0.0046,-0.0075,-0.003,0.0255,8.8
2.049,-0.006,-0.027,-0.0046,0.024,8.9
2.05,-0.0068,-0.0256,-0.0038,0.0165,9.0
2.051,-0.003,-0.0158,-0.0023,0.0015,9.1
2.052,-0.0038,-0.0053,-0.0015,-0.0046,9.2
2.053,-0.0053,-0.012,-0.0008,-0.0338,9.4
2.054,-0.0053,-0.0098,0.0015,-0.1238,9.5
2.055,-0.0008,-0.0338,0.0037,-0.1426,9.6
2.056,-0.0008,-0.084,0.003,-0.0968,9.7
2.057,-0.003,-0.0825,0.0022,-0.0856,9.9
2.058,-0.0023,-0.0683,0.0,-0.0465,10.0
2.059,-0.0046,-0.0398,-0.0023,0.027,10.1
2.06,-0.0046,-0.0248,-0.0038,0.0855,10.2
2.061,-0.0015,-0.0008,-0.0046,0.1462,10.4
2.062,0.003,0.1005,0.0,0.2467,10.5
2.063,0.0105,0.2107,0.0052,0.3307,10.7
2.064,0.018,0.2032,0.0067,0.2512,10.8
2.065,0.0142,0.0697,0.0015,0.0502,11.0
2.066,0.0052,-0.0225,-0.0015,-0.0315,11.2
2.067,0.0,-0.0323,0.0007,-0.0278,11.3
2.068,-0.0015,-0.0015,-0.0008,-0.06,11.5
2.069,-0.0023,0.0217,-0.0008,-0.078,11.7
2.07,-0.003,0.0135,-0.0008,-0.0953,11.8
2.071,-0.003,0.0217,-0.0015,-0.0975,12.0
2.072,-0.0015,-0.0256,0.0,-0.0923,12.1
2.073,0.0007,-0.0668,0.0007,-0.063,12.3
2.074,0.0015,-0.0683,0.0007,-0.0428,12.5
2.075,0.003,-0.075,0.0,-0.0488,12.6
2.076,0.0015,-0.06,0.0015,-0.0443,12.8
2.077,0.0007,-0.0691,0.0022,-0.0405,13.0
2.078,-0.0008,-0.063,0.0052,-0.0165,13.1
2.079,-0.0008,-0.0518,0.0052,0.0045,13.3
2.08,0.0,-0.042,0.0082,0.0202,13.5
2.081,0.0015,-0.024,0.0105,0.0315,13.6
2.082,0.0022,-0.024,0.0105,0.0382,13.8
2.083,0.0007,-0.0165,0.0105,0.0217,14.0
2.084,-0.0008,-0.0165,0.0082,-0.0015,14.1
2.085,-0.0008,-0.0173,0.006,-0.015,14.3
2.086,-0.0008,-0.0195,0.003,-0.0256,14.5
2.087,0.0007,-0.0098,0.0045,-0.024,14.7
2.088,0.0007,0.012,0.003,-0.0195,14.8
2.089,-0.0008,0.0165,0.0,-0.0091,15.0
2.09,-0.003,0.0105,0.0007,0.0015,15.2
2.091,-0.003,0.006,0.0,0.0082,15.3
2.092,-0.0015,0.0015,0.0015,0.0052,15.5
2.093,-0.0015,0.009,0.0,0.0007,15.7
2.094,-0.0008,0.0232,-0.003,-0.0091,15.9
2.095,-0.0015,0.0232,-0.0015,-0.0135,16.1
2.096,-0.0015,0.0165,-0.0015,-0.0105,16.2
2.097,0.0,0.0217,-0.003,-0.0173,16.4
2.098,0.0015,0.0367,0.0,-0.0181,16.6
2.099,0.0007,0.0397,0.0015,-0.0083,16.7
2.1,0.0,0.0465,-0.0008,0.0022,16.9
2.101,-0.0015,0.0427,0.0,0.012,17.1
2.102,-0.0015,0.0135,0.0,0.0082,17.3
2.103,-0.0008,-0.0008,-0.0008,-0.0165,17.5
2.104,-0.0023,-0.0068,0.0015,-0.0233,17.7
2.105,-0.0038,-0.0128,0.0,-0.0105,17.9
2.106,-0.0015,0.0,0.0007,-0.0068,18.1
2.107,0.0007,-0.0008,0.0,-0.0015,18.3
2.108,0.0015,-0.0143,0.0007,0.0127,18.4
2.109,0.0045,-0.0053,0.0015,0.0322,18.7
2.11,0.0045,0.0225,0.0015,0.0577,18.9
2.111,0.0007,0.03,0.0,0.093,19.0
2.112,0.0007,0.0082,-0.0008,0.1207,19.3
2.113,-0.0008,-0.0008,-0.0015,0.075,19.4
2.114,-0.003,-0.0053,-0.0015,0.0015,19.6
2.115,-0.0053,-0.0128,-0.0008,-0.012,19.8
2.116,-0.006,-0.012,-0.003,-0.0158,20.0
2.117,-0.0023,-0.0165,-0.0015,-0.0181,20.2
2.118,-0.0038,-0.0195,-0.0008,-0.0158,20.4
2.119,-0.0046,-0.024,-0.0015,-0.0173,20.6
2.12,-0.0046,-0.024,-0.003,-0.0158,20.8
2.121,-0.0038,-0.0173,-0.0046,-0.015,21.0
2.122,-0.003,-0.0083,-0.0046,-0.0098,21.2
2.123,-0.0046,0.0052,-0.006,-0.0128,21.4
2.124,-0.0038,0.0127,-0.0053,-0.015,21.6
2.125,-0.003,0.0127,-0.0053,-0.0128,21.8
2.126,-0.0023,0.0037,-0.0068,-0.0143,22.0
2.127,-0.0046,-0.0053,-0.0068,-0.0165,22.2
2.128,-0.0046,-0.015,-0.0046,-0.0135,22.5
2.129,-0.003,-0.0203,-0.003,-0.0091,22.6
2.13,-0.0015,-0.0203,0.0007,-0.0053,22.9
2.131,-0.003,-0.015,0.0037,-0.0015,23.1
2.132,-0.003,-0.0083,0.0045,-0.0015,23.3
2.133,0.0,-0.0015,0.0037,0.0007,23.5
2.134,0.0015,0.0007,0.0022,0.0022,23.7
2.135,0.003,0.0052,0.0045,0.003,23.9
2.136,0.0037,0.0067,0.0045,0.003,24.1
2.137,0.003,-0.0008,0.0015,0.003,24.3
2.138,0.0,-0.0098,-0.0015,0.0015,24.5
2.139,-0.003,-0.0158,-0.003,0.0,24.7
2.14,-0.0046,-0.0143,-0.003,0.0007,24.9
2.141,-0.0023,-0.0068,-0.003,0.003,25.2
2.142,0.0007,0.0007,0.0015,0.0045,25.3
2.143,0.0007,0.0067,0.003,0.0015,25.6
2.144,0.0007,0.0165,0.0037,0.0007,25.8
2.145,0.003,0.0292,0.0015,0.0022,26.0
2.146,0.0015,0.0397,-0.0008,0.0052,26.2
2.147,-0.0008,0.0382,0.0007,0.0082,26.4
2.148,0.0022,0.0292,0.0007,0.006,26.6
2.149,0.003,0.0195,-0.0015,0.0075,26.8
2.15,0.003,0.0127,-0.003,0.0082,27.0
2.151,0.003,0.0142,0.0,0.0082,27.2
2.152,0.0022,0.012,0.0015,0.0082,27.4
2.153,0.0015,0.0067,0.0037,0.0067,27.6
2.154,0.0,0.0007,0.0067,0.006,27.9
2.155,0.0007,-0.0046,0.0075,0.0067,28.1
2.156,0.0015,-0.0015,0.0082,0.0082,28.3
2.157,0.0007,-0.003,0.0075,0.0067,28.5
2.158,0.0015,-0.0105,0.0082,0.0022,28.7
2.159,-0.0015,-0.0165,0.009,0.0007,28.9
2.16,-0.0046,-0.0233,0.0067,-0.003,29.1
2.161,-0.0075,-0.024,0.0037,-0.0038,29.3
2.162,-0.0068,-0.0195,0.0015,-0.0046,29.5
2.163,-0.0053,-0.0218,0.0,-0.0046,29.7
2.164,-0.0046,-0.033,-0.0008,-0.0046,29.9
2.165,-0.0038,-0.0398,0.0,-0.0068,30.1
2.166,-0.0053,-0.0346,0.0007,-0.0046,30.3
2.167,-0.003,-0.0315,-0.0015,-0.0015,30.5
2.168,0.0007,-0.0308,0.0,-0.003,30.7
2.169,0.0007,-0.0346,-0.0015,-0.0046,30.9
2.17,-0.0015,-0.0443,-0.0038,-0.0046,31.1
2.171,-0.0046,-0.0488,-0.0023,-0.003,31.3
2.172,-0.0046,-0.0533,-0.0023,-0.0008,31.5
2.173,-0.0038,-0.0578,-0.0008,-0.0008,31.7
2.174,-0.0015,-0.057,-0.0008,-0.0008,31.9
2.175,-0.0015,-0.054,-0.0015,-0.0008,32.1
2.176,-0.003,-0.0503,-0.0023,0.003,32.3
2.177,-0.0015,-0.0428,-0.0008,0.0052,32.5
2.178,0.0015,-0.0308,0.0015,0.0067,32.7
2.179,0.0007,-0.0218,0.0045,0.0075,32.9
2.18,0.0007,-0.015,0.0075,0.0075,33.1
2.181,-0.0008,-0.0075,0.0075,0.0097,33.3
2.182,-0.0008,0.003,0.0075,0.0082,33.5
2.183,-0.003,0.0127,0.0037,0.003,33.7
2.184,-0.006,0.0142,0.0,0.0015,33.9
2.185,-0.0038,0.0157,-0.0023,-0.0008,34.1
2.186,-0.0046,0.0217,-0.0038,-0.0015,34.2
2.187,-0.0075,0.033,-0.0046,-0.0008,34.5
2.188,-0.0046,0.0405,-0.0038,0.003,34.6
2.189,0.0,0.045,-0.0046,0.003,34.8
2.19,0.0037,0.0465,-0.0046,0.003,35.1
2.191,0.0052,0.0472,-0.0038,0.0052,35.2
2.192,0.006,0.0442,-0.0046,0.0067,35.4
2.193,0.0075,0.0367,-0.0068,0.0075,35.6
2.194,0.0067,0.0322,-0.0068,0.0082,35.8
2.195,0.0052,0.024,-0.0068,0.009,36.0
2.196,0.0052,0.018,-0.0075,0.0097,36.2
2.197,0.0045,0.0165,-0.0068,0.0082,36.4
2.198,0.003,0.0157,-0.0053,0.0045,36.6
2.199,0.003,0.0127,-0.003,0.0037,36.8
2.2,0.0007,0.0097,-0.0038,0.0022,36.9
2.201,-0.0008,0.006,-0.0038,0.0007,37.1
2.202,-0.0023,0.003,-0.0008,0.0,37.3
2.203,-0.0046,0.0052,-0.0015,-0.0008,37.5
2.204,-0.0038,0.0127,-0.0008,-0.0015,37.7
2.205,-0.0015,0.018,-0.0008,-0.0023,37.9
2.206,-0.0015,0.0217,0.0007,-0.0015,38.1
2.207,-0.0015,0.024,0.0037,-0.003,38.3
2.208,-0.0008,0.0187,0.0045,-0.0038,38.5
2.209,-0.003,0.0127,0.003,-0.0053,38.7
2.21,-0.006,0.0127,0.0045,-0.0053,38.9
2.211,-0.0046,0.0202,0.006,-0.003,39.1
2.212,-0.003,0.024,0.0067,-0.0008,39.3
2.213,-0.0023,0.0217,0.0082,0.0015,39.5
2.214,-0.0015,0.0142,0.0052,0.0007,39.7
2.215,-0.0023,0.0067,0.0067,-0.0008,39.9
2.216,-0.0015,0.0067,0.0067,0.0015,40.1
2.217,0.0,0.0082,0.0052,0.0015,40.3
2.218,0.0015,0.0127,0.0075,0.0015,40.5
2.219,0.0022,0.0097,0.006,0.003,40.7
2.22,0.0022,-0.0053,0.003,0.0045,40.9
2.221,0.0045,-0.0165,0.0022,0.0052,41.0
2.222,0.003,-0.0218,0.0015,0.0022,41.2
2.223,-0.003,-0.021,-0.0008,0.0015,41.4
2.224,-0.0023,-0.0181,0.0007,0.0015,41.6
2.225,-0.003,-0.015,0.0007,0.0015,41.8
2.226,-0.0038,-0.0143,0.003,0.0045,42.0
2.227,-0.0015,-0.0165,0.0052,0.006,42.2
2.228,0.0,-0.0158,0.0045,0.0015,42.4
2.229,0.0015,-0.0091,0.0037,-0.0008,42.6
2.23,0.0015,-0.0008,0.003,-0.0015,42.7
2.231,0.0,0.0127,0.0037,-0.0015,42.9
2.232,-0.0008,0.0195,0.003,-0.0015,43.1
2.233,0.0,0.009,0.003,-0.0023,43.3
2.234,0.0015,-0.0015,0.003,-0.003,43.5
2.235,0.0,-0.0113,0.0015,-0.0015,43.7
2.236,-0.0008,-0.0203,-0.0008,0.003,43.9
2.237,0.0015,-0.024,-0.003,0.003,44.1
2.238,0.003,-0.0315,-0.0038,0.0022,44.3
2.239,0.003,-0.0346,-0.0046,0.0045,44.5
2.24,0.0015,-0.0315,-0.0046,0.0052,44.6
2.241,0.0022,-0.027,-0.0053,0.0007,44.8
2.242,0.0,-0.021,-0.0068,-0.0008,45.0
2.243,-0.0038,-0.0113,-0.0068,-0.0015,45.1
2.244,-0.0046,-0.0038,-0.006,-0.0023,45.3
2.245,-0.003,-0.0046,-0.003,-0.0046,45.4
2.246,-0.0015,-0.0015,-0.0046,-0.0083,45.6
2.247,-0.0023,0.0015,-0.0023,-0.012,45.8
2.248,-0.0038,0.0195,-0.0008,-0.0105,45.9
2.249,-0.003,0.0405,-0.0023,-0.0046,46.1
2.25,-0.0015,0.042,0.0,0.0007,46.3
2.251,0.0007,0.0405,0.003,0.0022,46.4
2.252,0.0037,0.0352,0.0067,0.0045,46.6
2.253,0.006,0.0202,0.009,0.0052,46.8
2.254,0.009,0.0052,0.0082,0.0067,46.9
2.255,0.009,-0.0135,0.009,0.0082,47.1
2.256,0.0052,-0.0293,0.0082,0.0097,47.2
2.257,0.0007,-0.0368,0.006,0.0105,47.4
2.258,0.0,-0.042,0.0045,0.0075,47.6
2.259,-0.0023,-0.0511,0.003,0.0015,47.7
2.26,-0.0053,-0.0653,0.0015,-0.0008,47.9
2.261,-0.0091,-0.0765,0.0007,-0.0015,48.0
2.262,-0.0128,-0.0803,0.0015,-0.0046,48.1
2.263,-0.012,-0.0773,0.0,-0.0053,48.2
2.264,-0.012,-0.0706,0.0015,-0.0053,48.3
2.265,-0.0105,-0.057,0.0022,-0.0075,48.5
2.266,-0.0105,-0.0428,0.0015,-0.0091,48.6
2.267,-0.0113,-0.0285,0.0015,-0.0083,48.6
2.268,-0.0091,-0.0158,0.003,-0.003,48.8
2.269,-0.0068,-0.0091,0.0052,0.0,48.9
2.27,-0.0038,-0.0068,0.0082,0.0015,49.0
2.271,-0.0023,-0.0053,0.0105,0.0022,49.1
2.272,-0.0008,-0.0046,0.0127,0.0045,49.2
2.273,0.0,0.003,0.0142,0.0052,49.4
2.274,0.0015,0.012,0.018,0.0052,49.5
2.275,0.0007,0.0187,0.0187,0.0067,49.6
2.276,0.0007,0.0195,0.0195,0.0067,49.7
2.277,0.0015,0.0157,0.0217,0.0075,49.8
2.278,0.0015,0.0165,0.021,0.0045,49.9
2.279,0.0015,0.0172,0.0217,0.0045,50.0
2.28,0.0015,0.018,0.0225,0.006,50.1
2.281,0.0007,0.0217,0.0202,0.0082,50.2
2.282,0.0015,0.027,0.021,0.009,50.2
2.283,0.0022,0.0277,0.0187,0.0052,50.3
2.284,0.0045,0.0277,0.0142,0.0045,50.4
2.285,0.0052,0.0292,0.0127,0.0045,50.4
2.286,0.0052,0.0292,0.0112,0.0045,50.4
2.287,0.0052,0.03,0.0082,0.0022,50.5
2.288,0.003,0.0255,0.0015,0.0015,50.6
2.289,0.0037,0.024,-0.0046,0.0007,50.6
2.29,0.0022,0.027,-0.0091,0.003,50.7
2.291,0.0045,0.0285,-0.012,0.0052,50.8
2.292,0.0052,0.0307,-0.0158,0.0015,50.8
2.293,0.0045,0.0292,-0.0195,0.0007,50.8
2.294,0.0045,0.0255,-0.0218,0.0045,50.9
2.295,0.0045,0.0232,-0.027,0.0022,51.0
2.296,0.0045,0.024,-0.0308,0.003,51.0
2.297,0.0037,0.021,-0.0323,0.0037,51.1
2.298,0.0007,0.0195,-0.033,0.0045,51.2
2.299,-0.0015,0.018,-0.0315,0.0067,51.2
2.3,-0.0008,0.009,-0.0353,0.006,51.3
2.301,-0.0015,-0.0023,-0.0405,0.0045,51.3
2.302,-0.003,-0.0143,-0.0436,0.0037,51.3
2.303,-0.003,-0.0233,-0.0495,0.0045,51.3
2.304,-0.0015,-0.0248,-0.0495,0.0015,51.3
2.305,-0.003,-0.0263,-0.0488,0.0007,51.3
2.306,-0.0023,-0.024,-0.0488,0.0037,51.3
2.307,-0.0015,-0.0158,-0.0473,0.003,51.3
2.308,-0.0015,-0.0068,-0.0473,0.0007,51.3
2.309,-0.0015,0.003,-0.0488,-0.0046,51.3
2.31,-0.0008,0.0067,-0.0503,-0.0023,51.4
2.311,0.0007,0.0045,-0.0495,-0.0008,51.4
2.312,0.0007,0.0037,-0.048,-0.003,51.4
2.313,0.0007,0.0037,-0.0465,-0.0008,51.4
2.314,0.0007,0.0007,-0.042,-0.0008,51.4
2.315,-0.0015,-0.003,-0.0375,0.0,51.4
2.316,-0.0015,-0.0083,-0.0338,0.0015,51.4
2.317,-0.003,-0.0143,-0.0315,0.0022,51.4
2.318,-0.0068,-0.0181,-0.0181,0.0015,51.5
2.319,-0.006,-0.0203,0.021,0.0,51.5
2.32,-0.0053,-0.024,0.0787,0.003,51.5
2.321,-0.0046,-0.024,0.1237,0.0015,51.5
2.322,-0.006,-0.0203,0.15,-0.0008,51.5
2.323,-0.0068,-0.015,0.1635,0.0007,51.4
2.324,-0.0091,-0.0091,0.1657,0.0007,51.4
2.325,-0.0091,-0.003,0.1642,-0.0008,51.4
2.326,-0.0075,0.0022,0.1612,0.0,51.4
2.327,-0.006,0.009,0.1567,0.0007,51.4
2.328,-0.0046,0.0105,0.1492,0.0007,51.3
2.329,-0.0046,0.009,0.1417,0.003,51.3
2.33,-0.0023,0.009,0.1312,0.003,51.3
2.331,-0.0008,0.0082,0.1177,0.0015,51.3
2.332,0.0,0.0105,0.102,0.0015,51.3
2.333,-0.0008,0.0142,0.0885,0.0022,51.2
2.334,-0.0008,0.0142,0.0705,0.0015,51.2
2.335,0.0007,0.015,0.0502,0.0007,51.2
2.336,0.0007,0.009,0.0322,0.0015,51.2
2.337,-0.0008,0.003,0.0187,0.0015,51.2
2.338,0.0,0.0007,0.0067,0.003,51.1
2.339,0.0015,0.0007,-0.0068,0.003,51.1
2.34,0.0022,0.0015,-0.0135,0.0022,51.0
2.341,0.003,0.0007,-0.024,0.0037,51.0
2.342,0.003,0.0015,-0.0346,0.0037,50.9
2.343,0.0037,0.0,-0.0436,0.003,50.8
2.344,0.0045,-0.003,-0.054,0.0037,50.7
2.345,0.0037,-0.003,-0.0578,0.0045,50.6
2.346,0.0015,-0.0038,-0.0638,0.003,50.5
2.347,0.0007,-0.0046,-0.0713,0.0015,50.4
2.348,0.0,-0.0015,-0.078,0.0007,50.4
2.349,0.0007,0.003,-0.0803,0.0007,50.3
2.35,0.0007,0.0067,-0.078,0.0,50.2
2.351,0.0022,0.003,-0.0765,0.0,50.1
2.352,0.0007,-0.0091,-0.0713,0.0007,50.0
2.353,-0.0008,-0.0256,-0.0668,0.0015,49.9
2.354,-0.0008,-0.0368,-0.0638,0.0037,49.9
2.355,-0.0008,-0.0428,-0.054,0.003,49.8
2.356,-0.0008,-0.0473,-0.048,0.0015,49.7
2.357,0.0007,-0.042,-0.0413,0.003,49.6
2.358,0.0015,-0.0368,-0.03,0.003,49.5
2.359,0.0,-0.0308,-0.0233,0.0045,49.4
2.36,0.0,-0.027,-0.0188,0.0045,49.3
2.361,-0.0008,-0.0256,-0.0135,0.0037,49.2
2.362,-0.0015,-0.0248,-0.012,0.003,49.1
2.363,-0.0008,-0.0203,-0.0091,0.0015,49.0
2.364,0.0,-0.0143,-0.0068,0.0007,48.8
2.365,-0.0008,-0.0083,-0.0083,-0.0008,48.7
2.366,-0.0015,-0.003,-0.0098,0.0,48.6
2.367,0.0007,-0.0015,-0.0091,-0.0008,48.5
2.368,0.0007,-0.0015,-0.0105,-0.0008,48.4
2.369,-0.0015,-0.0015,-0.0083,-0.0008,48.2
2.37,0.0007,-0.0015,-0.0046,-0.0008,48.1
2.371,0.0007,0.0022,0.0007,0.0015,48.0
2.372,0.0007,0.0015,0.003,0.0015,47.9
2.373,-0.0015,-0.0015,0.0022,0.0015,47.8
2.374,-0.0008,0.0,0.0015,0.0007,47.6
2.375,-0.0015,-0.003,0.0015,0.0,47.5
2.376,-0.0046,-0.0038,0.0015,0.0007,47.4
2.377,-0.003,-0.003,0.0007,-0.0015,47.3
2.378,-0.0046,-0.003,-0.003,-0.003,47.2
2.379,-0.0046,0.0007,-0.0053,-0.0023,47.1
2.38,-0.0046,0.003,-0.0075,-0.003,46.9
2.381,-0.0053,0.0075,-0.012,-0.0023,46.8
2.382,-0.0015,0.0105,-0.0158,-0.0015,46.7
2.383,-0.0015,0.0112,-0.0165,-0.0023,46.5
2.384,-0.0015,0.012,-0.0181,0.0,46.3
2.385,-0.003,0.0082,-0.0195,0.0007,46.2
2.386,-0.0015,0.0105,-0.0203,0.003,46.1
2.387,0.0007,0.0127,-0.0188,0.0045,45.9
2.388,0.003,0.0127,-0.0203,0.0045,45.8
2.389,0.0045,0.0127,-0.0233,0.0052,45.7
2.39,0.0022,0.012,-0.024,0.0075,45.5
2.391,0.0015,0.0135,-0.0233,0.0082,45.4
2.392,0.0015,0.015,-0.0195,0.0082,45.2
2.393,0.0015,0.0135,-0.0203,0.0067,45.1
2.394,0.0,0.012,-0.0195,0.0052,45.0
2.395,-0.0015,0.0105,-0.0181,0.0045,44.8
2.396,-0.0015,0.0082,-0.0195,0.0037,44.7
2.397,-0.0015,0.006,-0.0188,0.0015,44.5
2.398,-0.0008,0.0052,-0.0195,0.0015,44.4
2.399,-0.0008,0.0037,-0.0195,0.0015,44.2
2.4,0.0007,0.0067,-0.0173,0.0015,44.1
2.401,0.0007,0.0082,-0.015,0.0007,43.9
2.402,0.0007,0.0082,-0.012,0.003,43.8
2.403,-0.0008,0.009,-0.0098,0.0022,43.6
2.404,0.0007,0.0082,-0.0083,0.0022,43.5
2.405,0.0022,0.0082,-0.0075,0.003,43.3
2.406,0.0015,0.0082,-0.006,0.0015,43.1
2.407,0.0,0.0082,-0.0008,0.0015,43.0
2.408,-0.003,0.009,0.0052,0.0015,42.8
2.409,-0.0015,0.0105,0.0105,0.0007,42.7
2.41,-0.0008,0.0105,0.015,0.0007,42.5
2.411,-0.003,0.0075,0.015,0.0,42.3
2.412,-0.003,0.003,0.0135,-0.0015,42.2
2.413,-0.0015,0.0,0.0127,-0.0015,42.0
2.414,-0.0015,-0.0046,0.0105,-0.0008,41.8
2.415,-0.0015,-0.0068,0.0097,-0.0015,41.7
2.416,-0.0023,-0.0068,0.012,0.0007,41.5
2.417,-0.0015,-0.0083,0.0142,0.0,41.4
2.418,-0.0023,-0.0091,0.0142,-0.0008,41.2
2.419,-0.0015,-0.0091,0.0135,0.0007,41.0
2.42,-0.0008,-0.0083,0.0142,0.0007,40.8
2.421,-0.0015,-0.0083,0.0135,0.0007,40.7
2.422,-0.003,-0.0083,0.0127,0.0,40.5
2.423,-0.003,-0.0105,0.0157,0.0015,40.3
2.424,-0.0015,-0.012,0.018,0.0015,40.1
2.425,0.0007,-0.0105,0.0195,0.0007,40.0
2.426,0.0,-0.0075,0.0195,0.0007,39.8
2.427,-0.0008,-0.0053,0.0172,0.0007,39.6
2.428,-0.0015,-0.003,0.0157,0.0007,39.4
2.429,-0.0015,-0.0015,0.0157,0.0007,39.2
2.43,-0.0023,-0.003,0.0172,-0.0008,39.1
2.431,-0.003,-0.003,0.0165,0.0007,38.9
2.432,-0.0023,-0.0053,0.0157,0.0015,38.7
2.433,-0.003,-0.0135,0.018,0.003,38.5
2.434,-0.0046,-0.0256,0.0187,0.0022,38.3
2.435,-0.0038,-0.0308,0.0195,0.0022,38.2
2.436,-0.0015,-0.03,0.0202,0.0015,38.0
2.437,-0.0023,-0.0315,0.0187,0.0015,37.8
2.438,0.0,-0.0293,0.0172,0.0045,37.6
2.439,-0.0008,-0.024,0.0165,0.0052,37.4
2.44,-0.0015,-0.021,0.0157,0.0052,37.2
2.441,0.0,-0.0225,0.0165,0.0037,37.1
2.442,-0.0015,-0.0225,0.0165,0.0045,36.9
2.443,-0.0008,-0.0218,0.0157,0.003,36.7
2.444,-0.0015,-0.0181,0.0142,0.003,36.5
2.445,-0.0023,-0.0113,0.0112,0.0037,36.3
2.446,-0.0008,-0.0091,0.009,0.0015,36.1
2.447,0.0007,-0.003,0.009,0.0007,36.0
2.448,0.0015,0.0,0.009,0.0007,35.7
2.449,0.0007,0.0022,0.0067,0.0007,35.5
2.45,-0.0015,0.0052,0.0052,0.0015,35.4
2.451,-0.0023,0.0082,0.0045,0.0037,35.2
2.452,-0.0015,0.009,0.0037,0.0015,35.0
2.453,-0.0008,0.009,0.0022,0.0015,34.8
2.454,-0.0015,0.0142,-0.0008,0.0007,34.6
2.455,-0.0015,0.0142,-0.0023,0.0,34.4
2.456,-0.0023,0.0142,-0.0038,0.0007,34.2
2.457,-0.003,0.0127,-0.0038,0.0007,34.1
2.458,-0.003,0.0105,-0.0008,0.0015,33.8
2.459,-0.0015,0.0097,-0.0008,0.0007,33.7
2.46,-0.0008,0.0067,0.0007,0.0015,33.4
2.461,0.0007,0.0045,0.0022,0.0022,33.3
2.462,0.0007,0.003,0.0015,0.0022,33.1
2.463,-0.0008,0.0045,0.0015,0.0037,32.8
2.464,0.0,0.0052,0.0007,0.003,32.7
2.465,0.0,0.006,0.0,0.0022,32.4
2.466,-0.0015,0.006,-0.0015,0.003,32.2
2.467,-0.0015,0.0022,-0.003,0.0022,32.0
2.468,-0.0008,0.0045,0.0007,0.0015,31.8
2.469,0.0007,0.009,0.0015,0.0022,31.6
2.47,0.0015,0.009,0.0015,0.0022,31.4
2.471,0.0007,0.012,0.0007,0.0015,31.2
2.472,0.0007,0.0127,0.0007,0.003,31.0
2.473,0.0007,0.0105,0.0007,0.0037,30.8
2.474,-0.0008,0.009,-0.0015,0.0022,30.6
2.475,0.0015,0.0082,-0.0015,0.0015,30.4
2.476,0.003,0.009,-0.0023,0.0015,30.1
2.477,0.0022,0.0082,-0.0015,-0.0008,30.0
2.478,0.0007,0.0067,0.0,0.0007,29.7
2.479,-0.0008,0.0045,0.0007,-0.0008,29.6
2.48,-0.0008,0.0022,0.0007,-0.0008,29.3
2.481,-0.0008,-0.0008,-0.0008,0.0007,29.1
2.482,-0.0015,-0.003,0.0015,0.0007,28.9
2.483,0.0015,-0.0068,0.0022,0.0007,28.7
2.484,0.0007,-0.0053,0.0037,0.0007,28.4
2.485,0.0,-0.0046,0.0045,0.0015,28.2
2.486,-0.0008,-0.006,0.0045,0.0007,28.0
2.487,-0.0008,-0.0075,0.0045,-0.0008,27.8
2.488,-0.0008,-0.0083,0.0037,0.0015,27.5
2.489,0.0,-0.0083,0.0022,0.0015,27.3
2.49,0.0007,-0.0091,0.0015,0.0007,27.1
2.491,-0.0015,-0.0083,0.0007,0.0007,26.9
2.492,-0.0015,-0.0098,0.0022,0.0,26.7
2.493,-0.003,-0.0105,0.0022,0.0007,26.5
2.494,-0.003,-0.0091,0.0015,0.0007,26.2
2.495,-0.0015,-0.0091,0.0007,0.0015,26.0
2.496,-0.0008,-0.0068,0.0,0.0037,25.8
2.497,0.0007,-0.0046,0.0,0.0045,25.6
2.498,-0.0008,-0.0053,-0.003,0.0045,25.3
2.499,-0.0015,-0.0053,-0.0046,0.0037,25.1
2.5,-0.0038,-0.003,-0.0053,0.0015,24.8
2.501,-0.003,-0.0008,-0.003,0.003,24.7
2.502,-0.0015,-0.003,-0.0008,0.0037,24.4
2.503,-0.0053,-0.003,-0.0046,0.0015,24.2
2.504,-0.0083,-0.003,-0.0046,0.0015,24.0
2.505,-0.0068,-0.0015,-0.0053,0.0,23.8
2.506,-0.0015,0.0,-0.0068,0.0,23.5
2.507,-0.0008,-0.0015,-0.0046,0.0007,23.3
2.508,0.003,-0.003,-0.003,0.0015,23.1
2.509,0.0105,-0.0023,0.0,0.0,22.9
2.51,0.0157,-0.0015,0.0007,0.0007,22.6
2.511,0.0142,-0.0015,-0.0015,0.0015,22.4
2.512,0.0105,0.0007,-0.0015,0.0015,22.2
2.513,0.0082,0.0,-0.0046,0.0007,22.0
2.514,0.0045,-0.0068,-0.0038,0.0015,21.7
2.515,0.0015,-0.0158,-0.0046,0.0015,21.5
2.516,-0.0015,-0.0233,-0.0068,0.003,21.3
2.517,-0.003,-0.0263,-0.0083,0.0015,21.1
2.518,-0.0075,-0.0293,-0.0105,0.0015,20.8
2.519,-0.0128,-0.0323,-0.0091,0.0015,20.6
2.52,-0.0128,-0.033,-0.0105,0.0015,20.3
2.521,-0.0105,-0.0308,-0.0091,0.0015,20.2
2.522,-0.003,-0.0248,-0.0083,0.0015,19.9
2.523,0.003,-0.0225,-0.0075,0.0007,19.7
2.524,0.0045,-0.0181,-0.0038,0.0015,19.5
2.525,0.0045,-0.012,-0.0008,0.0015,19.2
2.526,0.0007,-0.0083,0.0,0.003,19.0
2.527,-0.0008,-0.003,0.0007,0.0022,18.8
2.528,-0.0008,-0.0015,0.0037,0.0022,18.5
2.529,-0.0038,-0.0023,0.0045,0.0007,18.3
2.53,-0.0046,0.0,0.003,-0.0008,18.1
2.531,-0.003,-0.0015,0.0045,0.0007,17.9
2.532,0.0,-0.0015,0.0045,0.0007,17.6
2.533,-0.0015,0.0007,0.003,0.003,17.4
2.534,-0.0023,0.003,0.0022,0.0037,17.2
2.535,-0.0023,0.0007,0.0045,0.0037,16.9
2.536,-0.0015,0.0,0.0075,0.0045,16.7
2.537,0.0007,0.003,0.0097,0.0015,16.5
2.538,0.0015,0.0045,0.012,0.0007,16.2
2.539,0.0015,0.0067,0.009,0.0,16.0
2.54,-0.0008,0.0105,0.0082,0.0007,15.7
2.541,-0.0008,0.009,0.0082,0.0022,15.6
2.542,-0.0015,0.0082,0.0067,0.0022,15.3
2.543,-0.0023,0.0105,0.0052,0.0015,15.1
2.544,-0.003,0.0097,0.006,0.0015,14.9
2.545,-0.0023,0.0082,0.0045,-0.0008,14.7
2.546,-0.0046,0.0112,0.0022,0.0,14.5
2.547,-0.0046,0.012,0.0015,0.0037,14.3
2.548,-0.0008,0.015,0.0007,0.0067,14.0
2.549,0.0007,0.0157,0.0007,0.012,13.8
2.55,0.003,0.0127,0.0,0.0165,13.6
2.551,0.0037,0.012,-0.0008,0.0127,13.4
2.552,0.0,0.0075,0.0,0.0015,13.2
2.553,0.0007,0.0052,-0.0008,-0.003,13.0
2.554,-0.0023,0.003,-0.0023,-0.003,12.7
2.555,-0.0008,0.0007,-0.006,-0.0046,12.5
2.556,0.0007,0.0,-0.0046,-0.0053,12.3
2.557,0.0007,-0.0008,-0.003,-0.0053,12.1
2.558,0.0015,-0.0008,-0.0053,-0.0053,11.9
2.559,-0.0015,0.0015,-0.0068,-0.0053,11.7
2.56,0.0007,0.0022,-0.0053,-0.0046,11.4
2.561,0.0,0.0,-0.0023,-0.0038,11.2
2.562,-0.0023,-0.0008,-0.0015,-0.0038,11.0
2.563,-0.0046,-0.003,0.0015,-0.0023,10.8
2.564,-0.006,-0.0008,0.003,0.0007,10.6
2.565,-0.003,0.0067,0.0052,0.0045,10.4
2.566,0.0,0.0105,0.0052,0.0045,10.2
2.567,0.0015,0.009,0.003,0.003,10.0
2.568,-0.0008,0.0045,0.003,0.003,9.8
2.569,-0.0015,0.0052,0.0022,0.0037,9.6
2.57,-0.0008,0.0067,0.0007,0.0022,9.4
2.571,-0.0023,0.0082,0.0015,0.0015,9.2
2.572,-0.0008,0.0067,0.0015,0.003,9.0
2.573,0.0007,0.003,0.0,0.0015,8.8
2.574,0.0022,0.0007,-0.0008,0.0022,8.6
2.575,0.003,-0.0008,-0.0008,0.0037,8.4
2.576,0.0015,-0.0008,-0.0008,0.0037,8.2
2.577,0.0015,0.0007,0.0007,0.0007,8.0
2.578,0.0,-0.003,-0.0015,-0.0046,7.8
2.579,-0.0015,-0.003,-0.003,-0.0075,7.6
2.58,-0.0053,0.0007,-0.0015,-0.0083,7.3
2.581,-0.0075,0.0022,-0.0015,-0.006,7.2
2.582,-0.012,0.0015,-0.0008,-0.0038,7.0
2.583,-0.012,-0.0008,0.0007,-0.0008,6.8
2.584,-0.0075,0.0007,0.0,0.0015,6.6
2.585,-0.0075,0.0052,0.0015,0.0045,6.4
2.586,-0.0023,0.0052,0.003,0.0075,6.2
2.587,0.006,0.0045,0.0045,0.0105,6.0
2.588,0.012,0.0007,0.0052,0.0112,5.8
2.589,0.0142,-0.0091,0.0052,0.0112,5.6
2.59,0.0142,-0.0256,0.0037,0.012,5.3
2.591,0.0135,-0.0353,0.0037,0.0075,5.2
2.592,0.0105,-0.0413,0.003,0.0037,5.0
2.593,0.0037,-0.0443,0.0015,0.0007,4.8
2.594,-0.0008,-0.0405,0.0007,-0.0023,4.6
2.595,-0.0046,-0.0383,-0.0015,-0.0046,4.4
2.596,-0.0128,-0.0338,-0.003,-0.0053,4.2
2.597,-0.0158,-0.0293,-0.003,-0.0053,4.0
2.598,-0.015,-0.021,-0.006,0.0,3.8
2.599,-0.0105,-0.0143,-0.0075,0.0052,3.6
2.6,-0.0068,-0.0105,-0.0068,0.0045,3.3
2.601,-0.006,-0.0068,-0.0046,0.0052,3.2
2.602,-0.0046,-0.0038,-0.0015,0.0052,3.1
2.603,-0.006,-0.0046,-0.0008,0.0052,3.0
2.604,-0.0046,-0.006,0.0015,0.006,2.9
2.605,-0.003,-0.0068,0.0052,0.0045,2.7
2.606,-0.003,-0.0091,0.0067,0.0015,2.6
2.607,-0.0015,-0.0091,0.0067,0.0015,2.5
2.608,-0.0038,-0.0068,0.006,-0.0015,2.4
2.609,-0.0015,-0.0083,0.0045,-0.006,2.2
2.61,-0.0008,-0.0083,0.0045,-0.0068,2.1
2.611,0.0015,-0.003,0.0045,-0.0068,2.0
2.612,0.0082,0.0015,0.006,-0.0053,1.8
2.613,0.0067,0.0022,0.0067,-0.0023,1.8
2.614,0.006,0.0105,0.0052,-0.0015,1.6
2.615,0.003,0.021,0.0052,0.0022,1.5
2.616,0.0015,0.024,0.0052,0.0105,1.3
2.617,0.0007,0.0292,0.006,0.0127,1.2
2.618,-0.0015,0.039,0.0052,0.009,1.1
2.619,-0.003,0.0262,0.0045,0.0037,1.0
2.62,-0.0053,0.0067,0.003,-0.0008,0.8
2.621,-0.0053,0.0052,0.0037,-0.003,0.8
2.622,-0.0053,0.0007,0.0037,-0.0046,0.7
2.623,-0.0091,-0.0008,0.0022,-0.003,0.6
2.624,-0.0053,0.0015,0.0045,-0.0015,0.6
2.625,-0.0008,-0.0008,0.0007,0.0015,0.5
2.626,0.0,-0.0053,-0.0015,0.0015,0.4
2.627,-0.0015,-0.0098,-0.0023,0.0015,0.4
2.628,-0.0008,-0.0023,-0.003,0.0015,0.3
2.629,0.0007,0.0082,-0.0068,-0.0008,0.2
2.63,-0.0008,0.0075,-0.0091,0.0015,0.1
2.631,-0.0023,0.0,-0.0091,0.0022,0.1
2.632,-0.0023,0.003,-0.0075,-0.0083,0.0
2.633,-0.0008,0.0135,-0.0046,-0.021,0.0
2.634,-0.0008,0.0202,-0.0038,-0.0338,-0.1
2.635,-0.0023,0.0195,-0.0015,-0.042,-0.2
2.636,-0.0008,0.0045,0.0007,-0.039,-0.3
2.637,0.0007,-0.0135,0.0007,-0.0383,-0.3
2.638,-0.0008,-0.0233,0.0007,-0.0188,-0.4
2.639,0.0,-0.021,0.003,0.0127,-0.5
2.64,0.003,-0.006,0.006,0.0442,-0.6
2.641,0.006,0.027,0.009,0.0682,-0.6
2.642,0.006,0.0577,0.0067,0.0802,-0.6
2.643,0.0067,0.069,0.0052,0.0787,-0.6
2.644,0.0075,0.0667,0.0052,0.048,-0.6
2.645,0.0052,0.03,0.0052,0.0345,-0.6
2.646,0.003,0.0045,0.0067,0.0315,-0.6
2.647,0.0045,0.0097,0.006,0.0045,-0.6
2.648,0.0075,-0.0083,0.006,-0.0091,-0.6
2.649,0.003,-0.0158,0.0052,-0.0173,-0.6
2.65,-0.0038,-0.0143,0.0007,-0.0165,-0.6
2.651,-0.0053,-0.0188,-0.0015,-0.0135,-0.6
2.652,-0.0053,-0.0143,-0.003,-0.0128,-0.6
2.653,-0.0046,-0.0128,-0.003,-0.0075,-0.6
2.654,0.0007,-0.012,-0.0038,-0.0098,-0.6
2.655,0.0052,-0.0165,-0.006,-0.0128,-0.6
2.656,0.0075,-0.0181,-0.006,-0.0165,-0.6
2.657,0.0067,-0.0203,-0.0068,-0.0158,-0.6
2.658,0.009,-0.0195,-0.003,-0.0143,-0.6
2.659,0.009,-0.0143,0.0007,-0.0128,-0.6
2.66,0.0052,-0.012,0.0022,-0.0091,-0.7
2.661,0.003,-0.0083,0.0022,-0.0098,-0.6
2.662,-0.0046,-0.0098,-0.0008,-0.0053,-0.6
2.663,-0.012,-0.012,0.0015,-0.0023,-0.5
2.664,-0.0128,-0.0173,-0.0015,-0.0015,-0.5
2.665,-0.0083,-0.0248,-0.0008,0.0037,-0.5
2.666,-0.0015,-0.0256,0.0075,0.012,-0.4
2.667,0.0045,-0.0256,0.009,0.0157,-0.4
2.668,0.0045,-0.0233,0.0052,0.024,-0.3
2.669,0.0,-0.0165,0.0007,0.036,-0.3
2.67,0.0,-0.0143,0.0015,0.0457,-0.2
2.671,0.0007,-0.0143,0.0015,0.0465,-0.2
2.672,-0.0015,-0.0128,0.0007,0.0217,-0.1
2.673,0.0015,-0.0091,0.0022,-0.0053,-0.1
2.674,0.0022,-0.0091,0.0015,-0.0203,0.0
2.675,0.0015,0.003,0.0007,-0.033,0.0
2.676,0.0015,0.0285,0.0007,-0.0368,0.0
2.677,-0.0008,0.024,0.0007,-0.0533,0.1
2.678,0.0,-0.0083,0.0007,-0.075,0.1
2.679,-0.0023,-0.027,0.0015,-0.0803,0.2
2.68,-0.0068,-0.0368,-0.0015,-0.0735,0.2
2.681,-0.0053,-0.0405,-0.0053,-0.06,0.3
2.682,-0.0046,-0.039,-0.0046,-0.0465,0.3
2.683,-0.0038,-0.0383,-0.0023,-0.021,0.4
2.684,-0.0008,-0.0203,0.0,0.0067,0.4
2.685,0.0,0.0007,0.0022,0.0367,0.4
2.686,0.0007,-0.0068,0.0052,0.0787,0.4
2.687,0.0067,-0.0143,0.0067,0.1305,0.5
2.688,0.0105,0.0202,0.0037,0.162,0.5
2.689,0.0067,0.0817,0.0,0.1515,0.6
2.69,0.0052,0.1215,-0.0023,0.132,0.6
2.691,0.0052,0.087,-0.0046,0.1087,0.7
2.692,-0.0046,0.0352,-0.0023,0.0697,0.7
2.693,-0.006,0.0457,0.0007,0.0345,0.8
2.694,-0.003,0.0405,0.0007,-0.0075,0.8
2.695,-0.0038,0.0247,-0.0008,-0.0256,0.9
2.696,-0.0053,0.0127,-0.0023,-0.0315,0.9
2.697,-0.0053,-0.0091,-0.003,-0.0413,0.9
2.698,-0.0046,-0.0135,-0.0015,-0.0511,0.9
2.699,-0.0046,-0.0368,-0.0023,-0.0653,1.0
2.7,-0.0038,-0.0503,-0.0046,-0.0608,1.0
2.701,-0.0053,-0.0578,-0.006,-0.0548,1.1
2.702,-0.0038,-0.0548,-0.0038,-0.048,1.2
2.703,-0.0008,-0.048,-0.0015,-0.039,1.2
2.704,-0.0023,-0.048,-0.0023,-0.0315,1.3
2.705,-0.003,-0.0315,-0.0008,-0.0068,1.3
2.706,-0.0046,-0.0308,0.0,0.0225,1.4
2.707,-0.0053,-0.0285,0.0015,0.0442,1.4
2.708,-0.0015,-0.0203,0.0015,0.0195,1.5
2.709,0.0015,-0.0218,-0.0023,-0.0338,1.6
2.71,0.0,-0.027,-0.0053,-0.0375,1.6
2.711,-0.0046,-0.0293,-0.0105,-0.0256,1.7
2.712,-0.0053,-0.0278,-0.0091,-0.0233,1.8
2.713,-0.0053,-0.0143,-0.0053,-0.0158,1.8
2.714,-0.003,-0.0008,-0.0046,-0.0015,1.8
2.715,-0.003,-0.003,-0.0038,0.0105,1.9
2.716,-0.003,0.0007,-0.006,0.0097,2.0
2.717,-0.003,0.0007,-0.003,0.0112,2.0
2.718,0.0,-0.0008,0.0022,0.0127,2.1
2.719,0.0045,0.0097,0.009,-0.0008,2.2
2.72,0.0052,0.0157,0.0142,-0.0165,2.2
2.721,0.0052,0.018,0.0127,-0.0173,2.2
2.722,0.003,0.0202,0.0105,-0.0075,2.2
2.723,-0.0015,0.0225,0.009,-0.0015,2.2
2.724,-0.0038,0.015,0.0105,-0.0068,2.2
2.725,-0.003,0.0067,0.012,-0.0091,2.3
2.726,0.0,0.009,0.015,-0.0075,2.3
2.727,0.0015,0.0097,0.0307,-0.012,2.3
2.728,-0.0023,0.0067,0.0547,-0.0091,2.3
2.729,-0.0068,0.0007,0.063,0.0067,2.3
2.73,-0.0068,0.0105,0.0412,0.0292,2.4
2.731,-0.012,0.018,0.0142,0.0495,2.4
2.732,-0.0165,0.0195,-0.003,0.0577,2.4
2.733,-0.0158,0.0217,-0.0181,0.0555,2.4
2.734,-0.015,0.0075,-0.024,0.0345,2.4
2.735,-0.0113,0.0045,-0.027,0.0127,2.4
2.736,-0.0098,0.0045,-0.0278,0.003,2.5
2.737,-0.003,0.0075,-0.0308,-0.0083,2.5
2.738,0.0105,0.0127,-0.033,-0.0173,2.5
2.739,0.0232,0.0082,-0.0233,-0.0233,2.5
2.74,0.027,0.0097,-0.0038,-0.0368,2.5
2.741,0.0277,0.0045,0.0075,-0.0405,2.4
2.742,0.0277,0.0015,0.009,-0.039,2.3
2.743,0.021,0.0105,0.0105,-0.0533,2.2
2.744,0.009,0.0195,0.0105,-0.0495,2.1
2.745,-0.0023,0.027,0.012,-0.0233,1.9
2.746,-0.0075,0.0292,0.015,0.0127,1.8
2.747,-0.0105,0.0217,0.0127,0.0315,1.7
2.748,-0.0143,0.0127,0.0082,0.0082,1.6
2.749,-0.0135,0.0105,0.009,0.0022,1.4
2.75,-0.0083,0.003,0.0165,0.0247,1.3
2.751,-0.0015,-0.003,0.0202,0.006,1.2
2.752,-0.0038,-0.0105,0.0165,-0.0293,1.1
2.753,-0.0105,-0.0181,0.0157,-0.024,0.9
2.754,-0.0083,-0.0128,0.0232,0.0067,0.9
2.755,-0.0008,-0.006,0.0292,0.0345,0.7
2.756,-0.0008,-0.0105,0.0262,0.0307,0.6
2.757,-0.0128,-0.0315,0.015,0.0015,0.4
2.758,-0.0188,-0.0458,0.0105,-0.0293,0.3
2.759,-0.0158,-0.0413,0.0105,-0.039,0.2
2.76,-0.0098,-0.039,0.0135,-0.045,0.0
2.761,-0.0053,-0.0346,0.018,-0.0503,0.0
2.762,-0.0015,-0.0285,0.0195,-0.033,0.0
2.763,0.0,-0.0315,0.0232,-0.012,0.0
2.764,0.0007,-0.0346,0.024,0.0255,0.0
2.765,0.0,-0.0353,0.0232,0.054,0.0
2.766,0.003,-0.0188,0.0262,0.0832,0.0
2.767,0.009,0.0517,0.027,0.114,0.0
2.768,0.012,0.1162,0.024,0.1192,0.0
2.769,0.0105,0.0855,0.018,0.1125,0.0
2.77,0.003,0.0337,0.0157,0.0877,0.0
2.771,-0.0015,0.0052,0.0105,0.0457,0.0
2.772,-0.0038,-0.0091,0.0075,-0.0008,0.0
2.773,-0.006,-0.0091,0.0052,-0.0195,0.0
2.774,-0.0083,-0.024,0.0015,-0.027,0.0
2.775,-0.006,-0.0181,0.0022,-0.0383,-0.1
2.776,-0.0046,-0.0375,0.0,-0.063,-0.1
2.777,-0.0068,-0.063,-0.003,-0.0803,-0.1
2.778,-0.0068,-0.0653,-0.0046,-0.063,-0.1
2.779,-0.0046,-0.063,-0.0053,-0.0503,-0.1
2.78,-0.003,-0.0473,-0.006,-0.0278,-0.2
2.781,0.0007,-0.054,-0.003,0.0082,-0.2
2.782,0.006,-0.027,-0.0015,0.0442,-0.2
2.783,0.0067,0.0052,-0.0105,0.0757,-0.2
2.784,0.0067,0.039,-0.0218,0.1125,-0.2
2.785,0.0052,0.0712,-0.0353,0.093,-0.2
2.786,0.0052,0.0292,-0.0518,0.0255,-0.2
2.787,0.0052,-0.0083,-0.0706,0.0082,-0.2
2.788,0.0052,-0.0233,-0.093,-0.0053,-0.2
2.789,0.0007,-0.0375,-0.1125,-0.0278,-0.2
2.79,-0.003,-0.0293,-0.129,-0.0233,-0.2
2.791,-0.0015,-0.0233,-0.1426,-0.03,-0.2
2.792,-0.003,-0.0181,-0.1523,-0.0361,-0.2
2.793,-0.0023,-0.0135,-0.1598,-0.0375,-0.2
2.794,-0.0023,-0.0083,-0.1665,-0.039,-0.2
2.795,-0.003,-0.0046,-0.162,-0.033,-0.2
2.796,-0.0008,-0.0015,-0.1485,-0.03,-0.2
2.797,-0.0008,0.0015,-0.1328,-0.024,-0.2
2.798,0.0007,0.0075,-0.111,-0.0173,-0.2
2.799,0.003,0.0112,-0.0848,-0.0188,-0.2
2.8,0.0045,0.0105,-0.0518,-0.0233,-0.2
2.801,0.0067,0.009,-0.0203,-0.0203,-0.2
2.802,0.0052,0.0075,0.0082,-0.0181,-0.3
2.803,0.0022,0.0052,0.0375,-0.0173,-0.4
2.804,-0.0008,0.0067,0.0562,-0.0053,-0.4
2.805,-0.0015,0.009,0.0712,0.0045,-0.5
2.806,-0.0015,0.0105,0.0802,0.009,-0.6
2.807,-0.0015,0.0142,0.1027,0.012,-0.6
2.808,-0.0015,0.0127,0.1305,0.0045,-0.7
2.809,-0.0015,0.0105,0.1357,-0.003,-0.8
2.81,-0.0053,0.0165,0.15,0.0075,-0.9
2.811,-0.0038,0.0217,0.1665,0.018,-0.9
2.812,-0.0008,0.027,0.1635,0.0195,-1.0
2.813,-0.0015,0.0255,0.159,0.024,-1.1
2.814,0.0007,0.0157,0.15,0.021,-1.1
2.815,0.0007,0.0127,0.141,0.003,-1.2
2.816,-0.0038,0.006,0.1365,-0.003,-1.3
2.817,-0.0053,0.0037,0.1252,-0.0008,-1.4
2.818,-0.0046,0.0067,0.1125,-0.0008,-1.4
2.819,-0.0015,0.012,0.093,-0.003,-1.5
2.82,0.0,0.012,0.093,-0.0091,-1.6
2.821,-0.0023,0.0045,0.1072,0.0045,-1.6
2.822,-0.0015,0.0045,0.108,0.027,-1.5
2.823,-0.0015,0.003,0.1012,0.0315,-1.5
2.824,-0.0015,-0.0046,0.0817,0.0247,-1.4
2.825,0.0015,-0.0015,0.0607,0.027,-1.4
2.826,0.0052,0.0105,0.0345,0.0375,-1.4
2.827,0.0045,0.0105,-0.0015,0.051,-1.3
2.828,0.003,0.009,-0.03,0.0367,-1.3
2.829,0.003,0.0075,-0.0585,0.009,-1.2
2.83,0.003,-0.003,-0.0795,-0.0083,-1.2
2.831,0.0022,-0.0068,-0.1095,-0.027,-1.1
2.832,-0.0008,-0.0053,-0.1441,-0.027,-1.1
2.833,-0.0015,0.0,-0.1635,-0.0165,-1.0
2.834,-0.003,0.0082,-0.1726,-0.0068,-1.0
2.835,-0.003,-0.0015,-0.1711,0.0007,-0.9
2.836,-0.0023,-0.006,-0.1696,0.0015,-0.9
2.837,-0.0015,-0.0143,-0.1628,-0.0015,-0.9
2.838,0.0007,-0.0308,-0.1553,-0.0053,-0.8
2.839,0.0007,-0.033,-0.1448,-0.012,-0.8
2.84,0.0022,-0.0346,-0.1305,-0.0105,-0.7
2.841,0.0015,-0.0105,-0.1088,-0.0083,-0.7
2.842,0.0037,0.0277,-0.075,-0.0008,-0.7
2.843,0.0052,0.0622,-0.0353,0.0082,-0.8
2.844,0.0015,0.0937,-0.0038,0.0052,-0.8
2.845,-0.0008,0.0487,0.0232,0.0007,-0.9
2.846,-0.003,-0.0038,0.048,0.0007,-0.9
2.847,-0.003,-0.0083,0.0742,0.0015,-0.9
2.848,-0.0023,-0.027,0.1027,0.0,-0.9
2.849,-0.0023,-0.021,0.1297,-0.0015,-0.9
2.85,-0.0008,-0.0203,0.1575,-0.0008,-1.0
2.851,-0.0008,-0.0248,0.1777,-0.003,-1.0
2.852,0.0007,-0.0218,0.189,-0.0038,-1.0
2.853,0.0007,-0.0256,0.1927,-0.003,-1.1
2.854,0.0,-0.0195,0.1882,-0.0023,-1.1
2.855,0.0007,-0.0188,0.177,-0.0053,-1.2
2.856,0.003,-0.015,0.1597,-0.0105,-1.2
2.857,0.0007,-0.0158,0.1372,-0.0105,-1.2
2.858,-0.0008,-0.0143,0.1125,-0.006,-1.3
2.859,-0.0015,-0.015,0.0862,-0.0015,-1.3
2.86,-0.0023,-0.012,0.063,0.0037,-1.4
2.861,-0.0015,-0.006,0.042,0.0045,-1.4
2.862,-0.003,-0.0068,0.027,-0.0053,-1.4
2.863,-0.0046,-0.0083,0.0142,-0.0158,-1.5
2.864,-0.0046,-0.0218,0.0022,-0.0091,-1.5
2.865,-0.003,-0.0338,-0.0053,0.006,-1.6
2.866,-0.0015,-0.0368,-0.0143,0.0255,-1.7
2.867,-0.0008,-0.0383,-0.027,0.0315,-1.7
2.868,-0.0038,-0.0405,-0.0368,0.0217,-1.8
2.869,-0.0053,-0.0405,-0.042,0.0052,-1.8
2.87,-0.003,-0.0368,-0.054,-0.0015,-1.9
2.871,-0.0015,-0.033,-0.0713,-0.006,-1.9
2.872,-0.0023,-0.0278,-0.09,-0.0188,-2.0
2.873,-0.0038,-0.0225,-0.1013,-0.033,-2.1
2.874,-0.0046,-0.0158,-0.1035,-0.0398,-2.1
2.875,-0.003,-0.012,-0.1006,-0.0323,-2.2
2.876,-0.003,-0.0083,-0.096,-0.0181,-2.3
2.877,-0.0038,-0.0053,-0.0945,-0.0046,-2.3
2.878,-0.006,0.0007,-0.09,0.0112,-2.3
2.879,-0.0046,0.0052,-0.0871,0.0247,-2.4
2.88,0.0,0.0097,-0.0871,0.0307,-2.5
2.881,0.0007,0.0142,-0.0878,0.0405,-2.5
2.882,0.0022,0.0135,-0.0893,0.0645,-2.6
2.883,0.0007,0.0187,-0.0893,0.0742,-2.7
2.884,0.0,0.0225,-0.084,0.0435,-2.7
2.885,-0.0008,0.0195,-0.0788,0.0045,-2.7
2.886,-0.0015,0.018,-0.0773,-0.0098,-2.8
2.887,-0.0023,0.0165,-0.0728,-0.0181,-2.9
2.888,-0.0038,0.0157,-0.066,-0.0195,-2.9
2.889,-0.0046,0.0172,-0.0615,-0.0165,-3.0
2.89,-0.003,0.0202,-0.057,-0.0165,-3.1
2.891,-0.0008,0.0217,-0.0525,-0.012,-3.1
2.892,-0.003,0.021,-0.0473,-0.0083,-3.2
2.893,-0.003,0.0187,-0.0398,-0.003,-3.2
2.894,0.0,0.018,-0.0323,0.0037,-3.2
2.895,0.0007,0.0165,-0.0263,0.0067,-3.3
2.896,0.0007,0.0165,-0.0195,0.0015,-3.4
2.897,-0.0008,0.0157,-0.0128,-0.0038,-3.4
2.898,-0.0008,0.015,-0.006,-0.0105,-3.5
2.899,0.0007,0.0172,-0.0015,-0.012,-3.6
2.9,0.0,0.0157,0.0007,-0.0083,-3.6
2.901,-0.0008,0.009,0.0052,0.003,-3.6
2.902,-0.0008,0.0052,0.0097,0.0202,-3.6
2.903,0.0015,0.0052,0.0135,0.0202,-3.6
2.904,0.0007,0.0067,0.0165,0.0135,-3.6
2.905,0.0007,0.0052,0.021,0.0015,-3.6
2.906,0.0015,-0.0015,0.0217,-0.0053,-3.6
2.907,-0.0008,-0.003,0.0232,-0.0075,-3.6
2.908,-0.0008,-0.0008,0.0232,-0.0105,-3.6
2.909,0.0,-0.0038,0.0232,-0.0135,-3.6
2.91,0.0022,-0.0053,0.0247,-0.0181,-3.6
2.911,0.0045,-0.0075,0.024,-0.0203,-3.6
2.912,0.003,-0.0105,0.0232,-0.0158,-3.6
2.913,0.0,-0.0075,0.0247,-0.0015,-3.6
2.914,0.0007,-0.006,0.0232,0.0052,-3.6
2.915,-0.0008,-0.0023,0.024,0.0082,-3.6
2.916,-0.003,-0.0008,0.0247,0.012,-3.6
2.917,-0.0023,-0.0008,0.0255,0.0127,-3.6
2.918,-0.003,-0.0015,0.0255,0.0142,-3.6
2.919,-0.0015,-0.0008,0.0255,0.012,-3.6
2.92,-0.0008,0.0007,0.0225,0.012,-3.6
2.921,-0.0008,0.003,0.0202,0.0097,-3.6
2.922,0.0022,0.0015,0.0225,0.009,-3.6
2.923,0.003,-0.0008,0.0217,0.0082,-3.6
2.924,0.0045,-0.0008,0.0202,0.0045,-3.6
2.925,0.0022,-0.003,0.0195,0.0037,-3.6
2.926,0.0015,-0.003,0.018,0.0082,-3.6
2.927,0.003,-0.0053,0.018,0.009,-3.6
2.928,0.0007,-0.0091,0.0157,0.0067,-3.6
2.929,0.0015,-0.0083,0.0142,0.0045,-3.6
2.93,0.0022,-0.012,0.0157,0.0015,-3.6
2.931,0.0,-0.0105,0.015,0.003,-3.6
2.932,-0.0008,-0.006,0.015,0.0037,-3.6
2.933,-0.0008,-0.0053,0.015,0.0015,-3.6
2.934,0.0,-0.0038,0.0142,-0.0015,-3.6
2.935,-0.0008,-0.006,0.0127,0.0022,-3.6
2.936,-0.003,-0.0046,0.012,0.0007,-3.6
2.937,-0.0046,-0.0053,0.0127,-0.003,-3.6
2.938,-0.003,-0.0053,0.0127,0.0007,-3.6
2.939,-0.0008,-0.0046,0.0142,-0.0008,-3.6
2.94,0.0,-0.0083,0.0142,-0.0038,-3.6
2.941,-0.0008,-0.0083,0.0142,-0.0008,-3.6
2.942,0.0007,-0.0098,0.0135,0.0052,-3.6
2.943,-0.0015,-0.0128,0.0105,0.0052,-3.6
2.944,-0.0015,-0.015,0.0105,-0.003,-3.6
2.945,0.0015,-0.0158,0.0082,-0.0083,-3.6
2.946,0.0007,-0.0165,0.009,-0.0075,-3.6
2.947,-0.0015,-0.0135,0.0082,-0.0068,-3.6
2.948,-0.0015,-0.0068,0.0067,-0.003,-3.6
2.949,-0.003,-0.0075,0.0075,0.0007,-3.6
2.95,-0.0046,-0.0038,0.006,0.0007,-3.6
2.951,-0.0046,0.015,0.0067,0.0022,-3.6
2.952,-0.0053,0.0255,0.006,0.003,-3.6
2.953,-0.0046,0.027,0.0067,0.0045,-3.6
2.954,-0.0038,0.0315,0.0067,0.0022,-3.6
2.955,-0.0038,0.0195,0.0045,-0.0015,-3.6
2.956,-0.0038,0.012,0.0052,-0.0008,-3.6
2.957,-0.003,0.0075,0.003,-0.0015,-3.7
2.958,-0.0015,-0.006,0.0007,-0.003,-3.7
2.959,0.0007,-0.0023,0.0015,-0.0015,-3.7
2.96,0.0,-0.0068,0.0037,-0.0008,-3.7
2.961,0.0,-0.0053,0.0045,-0.0008,-3.7
2.962,0.0,-0.0053,0.0045,0.0,-3.7
2.963,0.0,-0.0083,0.0045,0.0007,-3.7
2.964,-0.0015,-0.0053,0.0045,0.0007,-3.7
2.965,-0.0015,-0.0068,0.003,0.0022,-3.7
2.966,0.0,-0.003,0.0052,0.0015,-3.7
2.967,0.0022,-0.0068,0.006,0.0007,-3.7
2.968,0.0015,-0.0091,0.0045,-0.0015,-3.7
2.969,0.0007,-0.0158,0.0045,-0.0038,-3.7
2.97,0.0007,-0.0233,0.0045,-0.0038,-3.8
2.971,0.0,-0.0256,0.003,-0.0068,-3.8
2.972,0.0007,-0.0233,0.0037,-0.0038,-3.8
2.973,0.0007,-0.0158,0.003,0.0022,-3.8
2.974,0.0007,-0.0135,0.0052,0.0105,-3.8
2.975,0.0007,-0.0128,0.006,0.018,-3.8
2.976,0.0007,-0.0098,0.0045,0.012,-3.8
2.977,0.0007,-0.0038,0.006,-0.0068,-3.8
2.978,0.0007,0.0157,0.0037,-0.012,-3.8
2.979,-0.0008,0.0255,0.0007,-0.0105,-3.8
2.98,0.0,0.012,0.0007,-0.0046,-3.9
2.981,-0.0008,0.0082,0.0007,0.0082,-3.9
2.982,-0.0008,-0.0105,0.0,0.0127,-3.9
2.983,0.0007,-0.0293,-0.0008,0.0127,-3.9
2.984,-0.0008,-0.0285,-0.003,0.0142,-3.9
2.985,0.0007,-0.0361,-0.0015,0.0105,-3.9
2.986,-0.0008,-0.033,-0.0008,0.0,-3.9
2.987,-0.0008,-0.0346,0.0007,0.0007,-3.9
2.988,-0.0015,-0.0293,0.0007,0.0,-3.9
2.989,-0.003,-0.0293,-0.0008,-0.0038,-3.9
2.99,0.0007,-0.0323,0.0007,-0.0046,-3.9
2.991,-0.0015,-0.0218,-0.003,-0.0038,-3.9
2.992,-0.0038,-0.0173,-0.0008,-0.003,-3.9
2.993,-0.0015,-0.0128,0.0007,-0.0091,-3.9
2.994,-0.0008,-0.0091,0.0015,-0.0098,-3.9
2.995,0.0,-0.0075,0.0015,-0.0105,-3.9
2.996,-0.003,-0.0046,0.0007,-0.006,-3.9
2.997,-0.003,0.012,0.0037,-0.0015,-3.9
2.998,-0.003,0.0367,0.0067,-0.0053,-3.9
2.999,-0.0015,0.0315,0.0067,-0.015,-3.9
3.0,-0.0023,-0.0008,0.0052,-0.0218,-3.9
3.001,-0.0038,-0.0023,0.0052,-0.0218,-3.9
3.002,-0.0038,0.0127,0.003,-0.0165,-3.9
3.003,-0.003,0.0165,0.0015,-0.015,-3.9
3.004,-0.003,0.0082,0.0015,-0.0188,-3.9
3.005,-0.003,0.0255,0.003,-0.0256,-3.8
3.006,-0.0015,0.0517,0.0015,-0.0233,-3.8
3.007,-0.0046,0.033,-0.0023,0.0015,-3.8
3.008,-0.0053,0.0217,-0.003,0.0277,-3.8
3.009,-0.0046,0.0127,-0.0023,0.0412,-3.8
3.01,-0.003,0.0045,-0.0046,0.0277,-3.7
3.011,-0.0015,0.012,-0.0053,0.0007,-3.7
3.012,-0.0023,0.0195,-0.0046,-0.015,-3.7
3.013,-0.0008,0.012,-0.003,-0.0181,-3.7
3.014,0.0007,0.0007,-0.0038,-0.0083,-3.7
3.015,0.0015,0.0045,-0.0038,0.0015,-3.7
3.016,0.003,-0.0008,-0.0023,0.0097,-3.6
3.017,0.0015,-0.0008,-0.0015,0.0157,-3.6
3.018,0.0,-0.003,-0.0008,0.0285,-3.6
3.019,-0.0008,-0.0046,-0.0023,0.0382,-3.6
3.02,0.0015,-0.0038,-0.0015,0.0427,-3.6
3.021,0.0015,-0.0053,-0.0008,0.045,-3.6
3.022,0.0015,-0.0091,0.0007,0.042,-3.6
3.023,0.0022,-0.0158,-0.0008,0.0427,-3.6
3.024,-0.0015,-0.0158,-0.0015,0.042,-3.6
3.025,-0.0008,-0.0263,-0.0008,0.0412,-3.6
3.026,0.0015,-0.0308,-0.0008,0.0322,-3.6
3.027,0.0007,-0.0105,0.0,0.0037,-3.6
3.028,0.0007,0.0015,0.0,-0.0308,-3.6
3.029,0.0007,-0.0188,0.0015,-0.0413,-3.6
3.03,-0.0008,-0.033,0.0015,-0.054,-3.6
3.031,-0.0023,-0.0278,-0.0015,-0.0691,-3.6
3.032,-0.0046,-0.0128,-0.0015,-0.0518,-3.6
3.033,-0.0008,0.0015,-0.0008,-0.0053,-3.6
3.034,0.0015,0.0262,0.0,0.0577,-3.6
3.035,0.0007,0.0495,0.0,0.12,-3.6
3.036,0.0015,0.0255,-0.0015,0.1477,-3.6
3.037,0.0,-0.0015,-0.0008,0.1492,-3.6
3.038,0.0007,0.0157,-0.0008,0.1672,-3.6
3.039,0.003,0.0802,0.0,0.1507,-3.6
3.04,0.003,0.0825,0.0007,0.1162,-3.6
3.041,0.0052,0.0075,0.0,0.081,-3.6
3.042,0.0067,-0.0105,-0.0008,0.0052,-3.6
3.043,0.0052,-0.0225,-0.003,-0.0555,-3.6
3.044,0.003,-0.0361,-0.0015,-0.0638,-3.6
3.045,0.0015,-0.0285,-0.0023,-0.057,-3.5
3.046,-0.0023,-0.015,-0.0015,-0.048,-3.5
