Time_s,RF,BF,VM,ST,FX
0.0,-0.003,0.0007,0.0045,-0.0046,43.7
0.001,-0.0015,0.0022,0.0022,-0.0038,43.8
0.002,-0.0008,0.0045,0.0,-0.003,43.9
0.003,0.0,0.0067,0.0015,-0.0038,43.9
0.004,0.0007,0.0067,0.0,-0.003,44.0
0.005,0.0007,0.0052,-0.0015,-0.0015,44.1
0.006,0.0015,0.0015,-0.0015,-0.0023,44.1
0.007,0.0015,-0.0046,0.0015,-0.0046,44.1
0.008,0.0,-0.0105,0.0022,-0.003,44.2
0.009,0.0007,-0.0113,0.0015,-0.003,44.3
0.01,-0.0008,-0.0075,0.0007,-0.0015,44.3
0.011,0.0,0.0,-0.0015,-0.003,44.4
0.012,0.0,0.003,0.0007,-0.0023,44.5
0.013,-0.0015,0.0045,0.0015,0.0,44.5
0.014,-0.0008,0.006,0.0037,0.0015,44.5
0.015,-0.0015,0.0052,0.006,0.0015,44.6
0.016,-0.0008,0.0067,0.0075,0.0015,44.7
0.017,0.0,0.009,0.006,0.0007,44.7
0.018,-0.0008,0.0105,0.003,-0.0008,44.8
0.019,-0.0008,0.009,0.003,0.0015,44.9
0.02,-0.0015,0.0067,0.0037,0.0022,44.9
0.021,-0.0008,0.0045,0.0045,0.0022,44.9
0.022,0.0007,0.0045,0.003,0.0015,45.0
0.023,0.0007,0.0052,0.0037,0.0007,45.0
0.024,-0.0008,0.003,0.003,0.0007,45.0
0.025,-0.0015,-0.0008,0.003,0.0015,45.0
0.026,-0.0015,-0.0038,0.0045,0.0007,45.0
0.027,0.0,-0.006,0.0045,-0.0008,45.0
0.028,0.0007,-0.0105,0.0045,-0.003,45.1
0.029,0.0007,-0.015,0.0037,-0.0046,45.1
0.03,-0.0008,-0.0165,0.0007,-0.0046,45.1
0.031,0.0007,-0.012,-0.0008,-0.0053,45.1
0.032,0.0015,-0.0083,-0.0008,-0.0068,45.1
0.033,0.0,-0.0068,-0.0008,-0.0083,45.2
0.034,0.0007,-0.0038,-0.0008,-0.0075,45.2
0.035,0.0022,0.0015,-0.0015,-0.0053,45.2
0.036,0.0015,0.0045,-0.0015,-0.0068,45.2
0.037,0.0015,0.006,-0.0023,-0.0053,45.3
0.038,0.0015,0.0082,-0.0015,-0.0053,45.3
0.039,0.0007,0.0105,-0.003,-0.0068,45.3
0.04,0.0,0.012,-0.003,-0.0068,45.3
0.041,-0.0008,0.0105,-0.003,-0.0083,45.3
0.042,0.0,0.0097,-0.003,-0.0075,45.3
0.043,-0.0015,0.0105,-0.0008,-0.0068,45.3
0.044,-0.0015,0.0105,-0.0015,-0.0075,45.3
0.045,-0.0008,0.012,-0.0038,-0.0075,45.2
0.046,-0.0008,0.0097,-0.0038,-0.0083,45.2
0.047,-0.0015,0.003,-0.0023,-0.0083,45.2
0.048,-0.0008,-0.0015,-0.0015,-0.006,45.1
0.049,-0.0008,-0.0008,-0.0008,-0.0053,45.1
0.05,-0.0023,-0.0046,0.0007,-0.0038,45.1
0.051,-0.003,-0.0068,0.0015,-0.0015,45.0
0.052,-0.0015,-0.0053,0.0015,-0.0015,45.0
0.053,-0.003,-0.0046,0.0015,-0.0008,45.0
0.054,-0.0053,-0.003,-0.0008,0.0015,45.0
0.055,-0.0046,0.0,0.0007,0.0007,45.0
0.056,-0.0038,0.0022,0.0022,-0.0015,44.9
0.057,-0.0038,0.0015,0.0015,-0.0015,44.9
0.058,-0.0046,0.003,0.003,-0.0015,44.9
0.059,-0.0046,0.0052,0.003,-0.0008,44.9
0.06,-0.0053,0.006,0.003,0.0007,44.8
0.061,-0.0053,0.003,0.0007,0.0015,44.8
0.062,-0.0053,0.0037,-0.0015,0.0015,44.7
0.063,-0.0046,0.0052,-0.0023,-0.0008,44.6
0.064,-0.0038,0.0052,-0.0038,-0.0015,44.5
0.065,-0.0023,0.0052,-0.0015,-0.0015,44.5
0.066,-0.003,0.0052,-0.0008,-0.0023,44.4
0.067,-0.0038,0.0082,-0.0008,-0.0008,44.4
0.068,-0.0038,0.009,-0.003,-0.0008,44.3
0.069,-0.003,0.0075,-0.0015,-0.0008,44.2
0.07,-0.0038,0.0045,-0.0008,-0.0008,44.1
0.071,-0.0053,0.0022,-0.0023,0.0,44.1
0.072,-0.0046,0.0052,-0.0008,0.0015,44.1
0.073,-0.0038,0.0052,-0.0008,0.0007,44.0
0.074,-0.0053,0.0067,-0.0015,0.0,43.9
0.075,-0.0046,0.0075,-0.0008,0.0022,43.8
0.076,-0.003,0.0075,-0.0015,0.003,43.8
0.077,-0.003,0.0097,-0.0046,0.003,43.7
0.078,-0.0015,0.0142,-0.0053,0.003,43.6
0.079,-0.0023,0.012,-0.003,0.003,43.6
0.08,-0.003,0.009,-0.0023,0.003,43.5
0.081,-0.0015,0.0112,0.0007,0.0022,43.4
0.082,-0.0015,0.009,0.0015,0.003,43.3
0.083,-0.0008,0.009,0.0007,0.0037,43.2
0.084,0.0,0.009,0.0015,0.0037,43.2
0.085,0.0,0.0082,0.0022,0.0015,43.1
0.086,-0.0008,0.0067,0.0022,0.003,43.0
0.087,0.0,0.0037,0.0022,0.0037,42.9
0.088,0.0015,0.0045,0.0022,0.0045,42.8
0.089,0.0007,0.003,0.0015,0.0037,42.7
0.09,0.0015,-0.0015,0.0022,0.0045,42.7
0.091,-0.0015,0.0007,0.0045,0.006,42.6
0.092,-0.0008,0.0022,0.0052,0.0037,42.5
0.093,-0.0015,0.0007,0.0052,0.0045,42.4
0.094,-0.0046,-0.0015,0.0037,0.003,42.3
0.095,-0.003,-0.0023,0.0007,0.0022,42.3
0.096,-0.003,-0.003,0.0,0.003,42.2
0.097,-0.0046,-0.0046,-0.0008,0.0015,42.1
0.098,-0.0046,-0.0053,-0.0008,0.0007,42.0
0.099,-0.0046,-0.003,0.0015,0.0,41.9
0.1,-0.0053,-0.003,0.0007,0.0007,41.8
0.101,-0.0046,-0.0046,0.003,-0.003,41.7
0.102,-0.0015,-0.0046,0.0015,-0.0046,41.6
0.103,-0.003,-0.0046,0.0015,-0.003,41.5
0.104,-0.003,-0.0083,0.0007,-0.0046,41.4
0.105,-0.0015,-0.0105,0.0007,-0.0053,41.3
0.106,0.0,-0.0091,0.0,-0.0046,41.1
0.107,0.0015,-0.0083,0.0,-0.0046,41.0
0.108,0.0007,-0.0091,0.0,-0.0046,40.9
0.109,0.0,-0.0098,-0.0015,-0.003,40.8
0.11,0.0,-0.0098,-0.0008,-0.003,40.7
0.111,0.0007,-0.0091,0.0007,-0.003,40.5
0.112,0.0007,-0.0083,-0.0008,-0.0038,40.5
0.113,0.0007,-0.0083,-0.0015,-0.0023,40.3
0.114,0.0022,-0.0091,-0.003,-0.003,40.2
0.115,0.0015,-0.0113,-0.0008,-0.0053,40.1
0.116,0.0,-0.0158,-0.0015,-0.0053,40.0
0.117,-0.0008,-0.0181,-0.0008,-0.0046,39.9
0.118,-0.0015,-0.0188,0.0,-0.0046,39.7
0.119,-0.0015,-0.0195,0.0007,-0.0046,39.6
0.12,-0.003,-0.0203,0.0015,-0.003,39.5
0.121,-0.0046,-0.0225,0.0007,-0.0053,39.3
0.122,-0.003,-0.0195,0.0015,-0.006,39.2
0.123,-0.003,-0.0181,0.0007,-0.0038,39.0
0.124,-0.0015,-0.0143,0.0015,-0.0046,38.8
0.125,-0.003,-0.0083,0.0007,-0.0015,38.6
0.126,-0.0015,-0.003,-0.003,-0.0015,38.5
0.127,-0.0008,0.003,-0.0046,-0.0015,38.3
0.128,-0.0015,-0.0015,-0.0068,-0.0008,38.2
0.129,0.0007,-0.0158,-0.0068,-0.003,38.0
0.13,0.0,-0.0128,-0.006,-0.0046,37.8
0.131,-0.0015,-0.0143,-0.0053,-0.0053,37.7
0.132,-0.003,-0.0165,-0.0053,-0.0023,37.5
0.133,-0.003,-0.0053,-0.0053,0.0,37.3
0.134,-0.0008,-0.0083,-0.006,-0.0008,37.2
0.135,-0.0008,-0.012,-0.006,0.0,37.0
0.136,-0.0015,-0.0098,-0.0053,-0.0008,36.9
0.137,-0.0015,-0.0083,-0.003,0.0015,36.7
0.138,-0.0008,-0.006,-0.0023,0.0067,36.5
0.139,-0.0015,0.0105,-0.0008,0.0105,36.4
0.14,-0.0023,0.0202,0.0,0.0135,36.1
0.141,-0.0046,0.0007,-0.0015,0.0045,36.0
0.142,-0.0046,-0.0158,-0.0023,-0.0008,35.7
0.143,-0.0038,-0.0128,-0.0015,0.0,35.5
0.144,-0.0038,-0.0091,0.0007,-0.0046,35.3
0.145,-0.0046,-0.0105,0.0007,-0.003,35.1
0.146,-0.0053,-0.0143,0.003,-0.003,34.9
0.147,-0.0046,-0.0158,0.0015,-0.003,34.6
0.148,-0.0046,-0.0256,0.0007,-0.0053,34.5
0.149,-0.0053,-0.042,0.0,-0.0091,34.2
0.15,-0.006,-0.0458,0.0,-0.0083,34.0
0.151,-0.0053,-0.0405,0.0007,-0.0046,33.8
0.152,-0.0038,-0.0285,-0.0008,0.0007,33.6
0.153,-0.0046,0.0022,0.0,0.0045,33.4
0.154,-0.0038,0.039,0.0007,0.0052,33.2
0.155,-0.0015,0.0367,0.0037,0.0045,32.9
0.156,0.0015,0.0802,0.0045,0.0075,32.7
0.157,0.003,0.1537,0.003,0.0127,32.5
0.158,0.0022,0.0952,0.0045,0.003,32.3
0.159,0.003,0.0097,0.003,-0.0113,32.1
0.16,0.0007,0.0,0.003,-0.0091,31.8
0.161,0.0007,0.0105,0.0045,-0.0038,31.6
0.162,0.0,0.0,0.0037,-0.0046,31.4
0.163,-0.003,-0.0038,0.003,-0.0083,31.1
0.164,-0.0015,-0.0091,0.0007,-0.0135,30.9
0.165,-0.0008,-0.0143,-0.0008,-0.0165,30.6
0.166,-0.0008,-0.0105,0.0015,-0.0158,30.4
0.167,-0.0015,-0.006,0.003,-0.0143,30.2
0.168,-0.0015,0.003,0.0045,-0.0083,29.9
0.169,-0.0015,0.0127,0.0037,0.0015,29.7
0.17,0.0015,0.048,0.003,0.0067,29.4
0.171,0.0022,0.0705,0.0037,0.009,29.2
0.172,0.0015,0.0382,0.0007,0.0165,29.0
0.173,0.0015,-0.0068,-0.0015,0.0202,28.7
0.174,-0.0008,-0.0278,-0.0015,0.009,28.5
0.175,-0.003,-0.0068,-0.0008,-0.0015,28.3
0.176,-0.003,0.0465,-0.0008,0.0015,28.0
0.177,-0.0023,0.0577,-0.0008,0.003,27.8
0.178,-0.0008,0.0172,-0.0015,0.0,27.5
0.179,-0.0015,0.0007,-0.0023,0.0037,27.3
0.18,-0.0015,0.0052,-0.0015,0.0045,27.0
0.181,-0.003,-0.0053,-0.0015,0.0022,26.8
0.182,-0.0046,-0.027,0.0,0.0075,26.5
0.183,-0.0023,-0.0383,0.0015,0.006,26.3
0.184,0.0,-0.0518,0.0022,-0.003,26.0
0.185,0.003,-0.1013,0.003,-0.015,25.7
0.186,0.0015,-0.1343,0.0,-0.0173,25.5
0.187,0.0007,-0.1178,-0.0023,-0.0023,25.2
0.188,0.0,-0.063,-0.0015,0.009,25.0
0.189,-0.0023,-0.0158,0.0,0.021,24.7
0.19,-0.003,-0.0158,0.0022,0.018,24.4
0.191,-0.0046,-0.0293,0.0045,0.012,24.2
0.192,-0.0038,0.0322,0.0045,0.0285,23.9
0.193,-0.003,0.2017,0.0045,0.0292,23.7
0.194,-0.0046,0.249,0.0015,0.0052,23.4
0.195,-0.006,0.1087,-0.003,-0.0248,23.1
0.196,-0.0053,-0.0098,-0.0046,-0.027,22.9
0.197,0.0007,-0.0225,-0.0046,-0.0248,22.6
0.198,0.003,0.0202,-0.003,-0.024,22.4
0.199,0.0007,0.0165,-0.003,-0.0128,22.1
0.2,-0.003,-0.0533,-0.0015,-0.0158,21.8
0.201,-0.0083,-0.0878,-0.0008,-0.0113,21.6
0.202,-0.0075,-0.075,-0.0015,0.003,21.3
0.203,0.0015,0.0337,-0.0015,0.0225,21.1
0.204,0.0082,0.1447,-0.0015,0.0262,20.9
0.205,0.0105,0.0877,-0.0038,0.0195,20.6
0.206,0.0127,0.0097,-0.0046,0.0045,20.4
0.207,0.0067,-0.0346,-0.0068,-0.0128,20.2
0.208,-0.0008,-0.0353,-0.0053,-0.0068,19.9
0.209,-0.003,0.0225,-0.0046,-0.0128,19.7
0.21,-0.0083,-0.0008,-0.0053,-0.0203,19.4
0.211,-0.0083,-0.048,-0.0023,-0.0181,19.2
0.212,-0.0053,-0.0593,-0.0015,-0.015,18.9
0.213,-0.0015,-0.0293,0.003,-0.0068,18.7
0.214,0.0007,-0.012,0.0067,0.0007,18.5
0.215,-0.003,-0.0405,0.0045,0.0082,18.2
0.216,-0.0083,-0.0308,0.0067,0.0075,18.0
0.217,-0.0046,-0.0368,0.006,-0.0135,17.8
0.218,-0.003,-0.057,0.0045,-0.0353,17.5
0.219,-0.0083,-0.0398,0.0045,-0.0308,17.3
0.22,-0.0083,0.021,0.003,-0.0015,17.0
0.221,-0.0113,0.0082,0.003,0.0075,16.8
0.222,-0.0135,-0.0765,0.0045,-0.003,16.6
0.223,-0.0105,-0.0285,0.0082,0.0082,16.4
0.224,-0.0068,0.0675,0.009,0.0307,16.2
0.225,-0.0068,0.129,0.0105,0.0465,16.0
0.226,-0.0068,0.0952,0.0075,0.0307,15.8
0.227,-0.0015,0.0615,0.003,0.006,15.6
0.228,0.0015,0.0607,0.0007,-0.0023,15.4
0.229,0.0015,-0.042,-0.0008,-0.006,15.2
0.23,0.0052,-0.0856,-0.0008,-0.0105,14.9
0.231,0.0082,-0.1335,-0.0015,-0.0158,14.8
0.232,0.0075,-0.1365,-0.003,-0.0053,14.5
0.233,0.003,-0.1073,-0.0053,-0.0105,14.4
0.234,0.0,-0.1103,-0.0053,-0.012,14.1
0.235,-0.0015,-0.0398,-0.0015,-0.0083,13.9
0.236,-0.0015,0.0502,-0.0008,-0.012,13.7
0.237,-0.0046,0.102,0.0007,-0.0135,13.5
0.238,-0.0068,0.0127,0.0037,-0.012,13.3
0.239,-0.0053,-0.0091,0.0075,-0.006,13.1
0.24,-0.0068,0.0157,0.0052,-0.0173,12.8
0.241,-0.012,-0.003,0.0007,-0.0256,12.7
0.242,-0.0105,-0.003,-0.0015,-0.0233,12.5
0.243,-0.0015,0.0037,-0.0068,-0.0068,12.3
0.244,0.0105,0.0772,-0.0091,0.018,12.2
0.245,0.0172,0.0637,-0.0098,0.0345,12.0
0.246,0.012,0.0157,-0.0091,0.0495,11.8
0.247,0.0052,0.006,-0.0098,0.054,11.7
0.248,0.0007,-0.0218,-0.0083,0.033,11.5
0.249,-0.003,-0.0765,-0.0046,0.0135,11.3
0.25,-0.0053,-0.0878,-0.0008,0.0112,11.1
0.251,-0.0053,-0.0353,0.0007,-0.0091,11.0
0.252,-0.0068,-0.0346,-0.0046,-0.0203,10.8
0.253,-0.0158,-0.0256,-0.0075,-0.0218,10.6
0.254,-0.0173,0.039,-0.0083,-0.0203,10.4
0.255,-0.0158,0.039,-0.0068,-0.0135,10.3
0.256,-0.0158,-0.0675,-0.0046,-0.012,10.1
0.257,-0.0135,-0.09,-0.003,-0.015,9.9
0.258,-0.0128,-0.0706,-0.0015,-0.0218,9.8
0.259,-0.0091,-0.0533,0.0007,-0.0195,9.6
0.26,-0.0046,0.0142,0.0037,-0.0188,9.4
0.261,0.0007,0.0712,0.0052,-0.0165,9.3
0.262,0.0067,0.1485,0.003,0.009,9.1
0.263,0.0127,0.153,0.0015,0.0307,9.0
0.264,0.0172,0.0975,0.003,0.0277,8.9
0.265,0.018,0.024,0.003,0.0315,8.7
0.266,0.0165,-0.024,0.0022,0.0337,8.6
0.267,0.0157,-0.0105,-0.0008,0.0247,8.5
0.268,0.0202,-0.003,0.0015,0.0165,8.3
0.269,0.0165,0.0172,0.0052,0.0067,8.2
0.27,0.0037,-0.0346,0.006,0.0045,8.0
0.271,-0.0083,-0.0691,0.0067,0.0045,7.9
0.272,-0.0143,0.006,0.0045,-0.0023,7.7
0.273,-0.0143,0.0765,-0.0008,-0.012,7.6
0.274,-0.0128,0.099,0.0,0.0007,7.5
0.275,-0.0105,0.0277,-0.0008,0.012,7.3
0.276,-0.012,-0.042,-0.003,0.0067,7.2
0.277,-0.0165,-0.0443,-0.003,-0.003,7.1
0.278,-0.0203,-0.0263,-0.003,-0.0008,6.9
0.279,-0.0233,-0.0105,-0.003,0.0067,6.8
0.28,-0.0195,-0.0256,-0.0023,-0.0068,6.6
0.281,-0.0113,-0.0293,-0.0008,-0.0091,6.6
0.282,-0.0038,-0.0098,0.0022,-0.003,6.4
0.283,0.009,0.0577,0.0045,-0.0015,6.3
0.284,0.0165,0.0945,0.0052,0.018,6.3
0.285,0.0105,0.0555,0.0067,0.024,6.1
0.286,-0.0023,-0.039,0.0067,-0.0188,6.0
0.287,-0.012,-0.1178,0.0045,-0.0413,5.9
0.288,-0.0075,-0.1305,0.0052,-0.0346,5.8
0.289,0.0007,-0.1335,0.006,-0.027,5.7
0.29,0.0165,-0.0143,0.0075,-0.0023,5.6
0.291,0.03,0.0787,0.009,0.0082,5.5
0.292,0.0127,0.0937,0.0127,0.0082,5.4
0.293,-0.0038,0.1455,0.018,0.0067,5.3
0.294,-0.0083,0.0862,0.0142,0.0105,5.2
0.295,-0.0128,0.06,0.003,0.0015,5.1
0.296,-0.0105,0.1177,-0.0053,-0.0165,4.9
0.297,-0.0128,0.0435,-0.012,-0.0218,4.9
0.298,-0.0195,-0.0773,-0.0181,-0.0308,4.8
0.299,-0.0098,-0.0413,-0.0195,-0.021,4.6
0.3,0.0105,0.0045,-0.0165,-0.0053,4.5
0.301,0.0067,0.03,-0.0143,0.0165,4.5
0.302,-0.0053,0.1125,-0.0165,0.0465,4.4
0.303,-0.0105,0.1515,-0.0173,0.0397,4.3
0.304,-0.0046,0.072,-0.0083,0.0052,4.3
0.305,0.0105,-0.0593,0.0052,-0.0195,4.2
0.306,0.0142,-0.0691,0.0082,-0.0443,4.1
0.307,0.0157,-0.1118,0.0015,-0.0608,4.0
0.308,0.0142,-0.1035,0.0007,-0.0503,4.0
0.309,0.0067,-0.0593,-0.0008,-0.0413,3.9
0.31,0.0045,-0.0758,-0.0053,-0.0353,3.8
0.311,0.003,-0.0953,-0.0068,-0.039,3.7
0.312,0.006,-0.1163,-0.0015,-0.033,3.7
0.313,0.0007,-0.0293,0.0075,-0.0053,3.6
0.314,-0.0015,0.0382,0.0127,0.0195,3.6
0.315,0.0015,0.0592,0.0157,0.0502,3.5
0.316,-0.0015,0.0525,0.0127,0.0637,3.4
0.317,-0.0075,0.0795,0.0052,0.063,3.3
0.318,-0.0158,0.1035,0.0015,0.0885,3.2
0.319,-0.0113,0.0577,0.0015,0.0802,3.2
0.32,-0.003,-0.0225,0.003,0.0405,3.1
0.321,0.0015,-0.0878,0.0022,0.012,3.1
0.322,0.0037,-0.0803,0.0007,-0.0023,3.1
0.323,-0.0098,-0.0915,0.0007,-0.0083,3.0
0.324,-0.0143,-0.1013,0.0007,-0.0203,3.0
0.325,0.0067,-0.0675,-0.0008,-0.0195,2.9
0.326,0.018,0.039,0.0015,-0.024,2.9
0.327,0.024,0.1237,0.0015,-0.0361,2.9
0.328,0.0195,0.0592,0.0007,-0.0436,2.8
0.329,-0.0008,-0.0181,0.0052,-0.0503,2.8
0.33,-0.0075,-0.0233,-0.0015,-0.039,2.8
0.331,-0.0128,-0.0495,-0.0105,-0.0225,2.7
0.332,-0.0181,-0.0578,-0.015,-0.003,2.7
0.333,-0.0165,-0.0263,-0.0098,0.021,2.7
0.334,-0.0098,0.012,-0.0008,0.0382,2.6
0.335,-0.0015,0.0765,0.0052,0.0495,2.6
0.336,-0.0015,0.1387,0.018,0.063,2.6
0.337,-0.006,0.093,0.0165,0.0502,2.6
0.338,-0.012,0.024,0.009,0.0142,2.5
0.339,-0.0105,0.0345,0.0067,-0.0008,2.5
0.34,-0.0158,-0.0083,-0.0015,-0.0091,2.4
0.341,-0.024,-0.0353,-0.0053,-0.021,2.5
0.342,-0.0225,-0.0465,-0.012,-0.0263,2.5
0.343,-0.012,-0.075,-0.0158,-0.0263,2.6
0.344,0.0142,-0.0518,-0.0181,-0.021,2.6
0.345,0.033,-0.0525,-0.0188,-0.0225,2.7
0.346,0.021,-0.0721,-0.0181,-0.033,2.7
0.347,0.003,-0.0975,-0.0188,-0.0353,2.8
0.348,-0.0068,-0.0833,-0.0195,-0.0181,2.8
0.349,0.0,-0.0158,-0.0293,0.0015,2.9
0.35,0.0135,0.042,-0.03,0.009,2.9
0.351,0.045,0.0442,-0.0188,0.0157,3.0
0.352,0.1117,0.0187,-0.003,0.0187,3.0
0.353,0.1162,0.057,0.009,0.0277,3.1
0.354,0.0382,0.0952,0.0112,0.0292,3.1
0.355,-0.0113,0.0795,0.012,0.018,3.2
0.356,-0.045,0.0255,0.0075,0.0217,3.2
0.357,-0.0728,0.0075,0.0202,0.006,3.3
0.358,-0.0893,-0.0008,0.027,-0.0091,3.3
0.359,-0.0893,-0.0135,0.021,0.0045,3.4
0.36,-0.054,0.0247,0.0195,0.0045,3.4
0.361,-0.0398,0.042,0.0067,0.0142,3.5
0.362,-0.033,-0.0233,0.0045,0.0165,3.6
0.363,-0.0173,-0.0856,0.0015,0.0082,3.6
0.364,-0.0008,-0.0653,-0.0105,0.0067,3.7
0.365,0.0127,-0.0893,-0.0203,-0.0053,3.8
0.366,0.03,-0.1006,-0.0181,-0.0285,3.9
0.367,0.0367,-0.0728,-0.0023,-0.0458,4.0
0.368,0.0105,-0.0368,0.012,-0.0315,4.0
0.369,-0.0263,0.084,0.0202,-0.015,4.1
0.37,-0.0458,0.1132,0.0135,-0.0023,4.2
0.371,-0.0428,0.0675,0.0,0.0045,4.3
0.372,-0.0285,0.1102,0.0022,0.009,4.4
0.373,-0.0015,0.0787,0.0082,0.009,4.5
0.374,0.0082,-0.0046,-0.0053,0.003,4.5
0.375,-0.0008,-0.0465,-0.0135,-0.0053,4.6
0.376,0.0,-0.1028,-0.0068,-0.0203,4.7
0.377,0.0037,-0.0675,0.0007,-0.0135,4.8
0.378,0.0052,-0.048,0.003,-0.0165,4.8
0.379,0.0,-0.0691,0.0007,-0.0315,4.9
0.38,0.0105,-0.057,0.0052,-0.0256,5.0
0.381,0.0307,-0.057,0.0082,-0.006,5.0
0.382,0.0442,-0.0383,0.018,0.009,5.1
0.383,0.0637,-0.0615,0.0142,0.0112,5.1
0.384,0.0637,-0.0825,0.0007,0.018,5.2
0.385,0.042,0.0082,0.009,0.0142,5.3
0.386,0.0067,0.1245,0.0082,0.021,5.3
0.387,-0.0293,0.168,-0.0038,0.0465,5.3
0.388,-0.0233,0.165,-0.0046,0.021,5.4
0.389,-0.0165,0.0495,-0.0015,-0.0608,5.4
0.39,-0.039,-0.135,-0.003,-0.1028,5.5
0.391,-0.057,-0.1913,0.0015,-0.0856,5.5
0.392,-0.0405,-0.15,0.0112,-0.0728,5.6
0.393,-0.0053,-0.0773,0.0165,-0.0743,5.6
0.394,0.0262,-0.0788,0.0262,-0.0563,5.7
0.395,0.0367,-0.0046,0.048,0.0022,5.8
0.396,0.0112,0.2917,0.0457,0.0667,5.8
0.397,-0.0083,0.4372,0.0127,0.1335,5.8
0.398,-0.0181,0.3165,-0.0083,0.156,5.9
0.399,-0.0233,0.1567,-0.027,0.0952,5.9
0.4,0.003,0.0202,-0.0436,0.0292,6.0
0.401,0.0555,-0.0533,-0.0436,0.0007,5.9
0.402,0.15,-0.0308,-0.0308,-0.0053,5.9
0.403,0.213,-0.039,-0.0128,-0.012,5.8
0.404,0.1087,-0.0653,-0.0158,-0.0143,5.7
0.405,-0.0225,-0.096,-0.0323,-0.021,5.6
0.406,-0.078,-0.1088,-0.0383,-0.0165,5.6
0.407,-0.1283,-0.1411,-0.0233,0.0007,5.5
0.408,-0.1253,-0.1785,-0.0023,-0.0008,5.4
0.409,-0.093,-0.1673,0.0195,-0.03,5.3
0.41,-0.0645,-0.147,0.042,-0.0323,5.3
0.411,-0.0615,-0.0578,0.0472,-0.0083,5.2
0.412,-0.0735,0.0315,0.045,0.0195,5.1
0.413,-0.0233,0.0727,0.0292,0.0382,5.0
0.414,0.039,0.2107,0.012,0.0352,4.9
0.415,0.0682,0.3195,0.0105,0.0292,4.9
0.416,0.0495,0.1147,0.024,0.0082,4.8
0.417,-0.0053,-0.0225,0.0315,0.003,4.7
0.418,-0.0533,-0.0165,0.024,0.003,4.6
0.419,-0.0533,-0.0938,0.0255,-0.0203,4.6
0.42,-0.0195,-0.1043,0.0225,-0.0428,4.5
0.421,-0.006,-0.0825,0.0015,-0.0578,4.5
0.422,0.003,-0.0293,-0.0083,-0.0488,4.4
0.423,0.0112,0.039,-0.0128,-0.0158,4.3
0.424,0.0202,0.0735,-0.0083,0.0165,4.3
0.425,0.0187,0.0795,-0.003,0.0397,4.2
0.426,-0.0038,0.0442,-0.0053,0.0517,4.1
0.427,-0.0165,0.0292,0.0165,0.0532,4.1
0.428,-0.027,0.069,0.0285,0.0487,4.0
0.429,-0.0105,0.024,0.0127,0.0315,4.0
0.43,0.0217,-0.0465,0.0067,0.0285,3.9
0.431,0.0195,-0.0338,0.0105,0.0322,3.9
0.432,-0.0128,-0.0346,0.0082,0.021,3.8
0.433,-0.0443,-0.0293,0.0105,0.0067,3.7
0.434,-0.0578,-0.0346,-0.0015,-0.0015,3.7
0.435,-0.0181,-0.0375,-0.0083,0.0,3.6
0.436,0.0292,-0.0353,0.0165,0.003,3.6
0.437,-0.0008,-0.033,0.027,0.0007,3.5
0.438,-0.0555,-0.0263,0.012,-0.003,3.5
0.439,-0.0818,-0.0323,-0.0165,-0.0053,3.4
0.44,-0.057,-0.024,-0.039,-0.0068,3.3
0.441,-0.0218,-0.0248,-0.027,-0.0128,3.4
0.442,-0.0218,-0.0218,-0.0218,-0.012,3.6
0.443,0.0022,-0.0143,-0.024,-0.0091,3.7
0.444,0.0307,-0.012,-0.0195,-0.0068,3.9
0.445,0.072,-0.0075,-0.0135,-0.0075,4.0
0.446,0.099,-0.0083,-0.0068,-0.0128,4.1
0.447,0.09,-0.015,-0.012,-0.0188,4.3
0.448,0.1155,-0.0158,-0.0105,-0.0218,4.4
0.449,0.108,-0.0188,-0.0105,-0.0225,4.5
0.45,0.0652,-0.0248,-0.0188,-0.0233,4.7
0.451,0.0202,-0.0181,-0.0256,-0.0278,4.9
0.452,-0.0165,-0.0113,-0.0315,-0.0293,5.0
0.453,-0.021,-0.0143,-0.0233,-0.0278,5.1
0.454,-0.0233,-0.0263,-0.0158,-0.024,5.3
0.455,-0.0053,-0.012,-0.006,-0.0023,5.4
0.456,-0.0068,0.0142,0.003,0.0105,5.5
0.457,-0.0188,0.0352,0.0007,0.0202,5.7
0.458,-0.0188,0.0555,-0.0098,0.0255,5.8
0.459,-0.0248,0.0577,-0.0203,0.018,6.0
0.46,-0.0181,0.0727,-0.0135,0.0315,6.1
0.461,-0.0195,0.0427,-0.0091,0.0292,6.3
0.462,-0.0181,-0.0068,-0.0053,-0.012,6.5
0.463,-0.012,-0.0413,-0.0053,-0.0495,6.7
0.464,-0.0135,-0.0788,-0.0128,-0.0473,6.8
0.465,-0.0023,-0.0346,-0.015,-0.03,7.0
0.466,0.0067,0.0592,-0.0181,-0.0046,7.2
0.467,0.0,0.0982,-0.0143,0.0232,7.3
0.468,-0.0008,0.0547,-0.0053,0.021,7.5
0.469,-0.0068,0.048,0.0045,0.0045,7.7
0.47,-0.012,0.0157,0.0015,-0.0091,7.9
0.471,-0.0008,-0.0436,-0.0046,-0.0008,8.0
0.472,0.0007,-0.0113,-0.0083,0.009,8.2
0.473,-0.0053,0.009,-0.0143,0.0165,8.4
0.474,-0.0098,-0.0083,-0.0218,0.0292,8.5
0.475,-0.0068,-0.0308,-0.0278,0.033,8.7
0.476,0.0022,-0.0173,-0.0285,0.0225,8.9
0.477,0.012,-0.0046,-0.0233,0.003,9.0
0.478,0.012,-0.0143,-0.0083,-0.0195,9.2
0.479,0.0022,-0.024,0.0037,-0.0353,9.4
0.48,0.0007,-0.0128,-0.0008,-0.033,9.6
0.481,0.0022,-0.0083,-0.0135,-0.0346,9.6
0.482,0.0037,-0.0135,-0.0248,-0.033,9.7
0.483,-0.003,-0.0098,-0.0233,-0.0308,9.7
0.484,0.0165,-0.0203,-0.0128,-0.0293,9.8
0.485,0.0772,-0.024,-0.0135,-0.0256,9.8
0.486,0.0855,-0.042,-0.0203,-0.0278,9.9
0.487,0.0382,-0.0383,-0.024,-0.0293,9.9
0.488,0.0,-0.0233,-0.0233,-0.0278,9.9
0.489,-0.0555,-0.0181,-0.0128,-0.0233,10.0
0.49,-0.1058,-0.0008,0.0022,-0.0248,10.1
0.491,-0.1193,0.0217,0.021,-0.0293,10.1
0.492,-0.1178,0.0622,0.0367,-0.024,10.2
0.493,-0.1148,0.0772,0.036,-0.021,10.2
0.494,-0.0743,0.0292,0.045,-0.024,10.3
0.495,0.0045,-0.024,0.0465,-0.0203,10.3
0.496,0.0315,-0.0338,0.0262,-0.012,10.3
0.497,0.024,-0.039,0.0052,-0.0068,10.4
0.498,0.0255,-0.0443,0.0022,-0.0015,10.4
0.499,0.0232,-0.0338,0.0315,0.0007,10.5
0.5,0.0397,0.048,0.0472,0.0015,10.5
0.501,0.036,0.1312,0.0427,0.0007,10.5
0.502,0.006,0.0285,0.0255,0.0045,10.4
0.503,-0.0165,-0.054,-0.003,0.0082,10.3
0.504,-0.027,-0.0233,-0.0105,0.0052,10.2
0.505,-0.0128,-0.045,-0.003,-0.0046,10.1
0.506,0.009,-0.0315,0.0082,-0.0105,10.0
0.507,0.0382,0.0022,0.0112,-0.0075,9.9
0.508,0.0585,0.0517,0.0015,-0.006,9.9
0.509,0.0457,0.0562,-0.0046,-0.0046,9.8
0.51,0.0202,-0.0105,-0.0158,-0.0068,9.7
0.511,0.0045,-0.0233,-0.024,-0.0075,9.6
0.512,0.0052,-0.0263,-0.0143,-0.003,9.5
0.513,0.009,-0.0203,0.0015,-0.0008,9.4
0.514,0.0052,-0.0181,0.009,0.003,9.4
0.515,0.0,-0.0218,0.0082,0.0052,9.3
0.516,-0.003,-0.0165,0.0105,0.006,9.2
0.517,-0.0068,-0.0225,0.0127,0.0015,9.1
0.518,-0.0105,-0.0203,0.0105,-0.0068,9.0
0.519,-0.0098,-0.0263,0.0052,-0.0053,8.9
0.52,-0.0113,-0.0165,0.0052,-0.003,8.8
0.521,-0.0105,-0.0046,0.0067,0.003,8.8
0.522,-0.0105,-0.0008,0.009,0.0217,8.7
0.523,-0.0098,0.0052,0.0105,0.0337,8.7
0.524,-0.003,-0.006,0.0067,0.0202,8.6
0.525,0.003,-0.03,0.0082,-0.0015,8.6
0.526,0.0045,-0.0458,0.0082,0.0015,8.5
0.527,0.0007,-0.0285,0.006,0.018,8.5
0.528,-0.0038,-0.0181,0.0052,0.0217,8.5
0.529,-0.0046,0.0045,0.0052,0.0382,8.4
0.53,-0.0023,0.0862,0.0067,0.0622,8.4
0.531,-0.0046,0.1552,0.0082,0.0712,8.4
0.532,-0.003,0.126,0.006,0.057,8.3
0.533,-0.0083,0.0547,0.0045,0.0375,8.3
0.534,-0.0181,0.0232,0.0037,0.0307,8.2
0.535,-0.0165,0.0052,0.0037,0.024,8.2
0.536,-0.012,-0.0046,0.0015,0.0142,8.1
0.537,-0.0075,-0.003,0.003,0.0007,8.1
0.538,-0.0091,0.0067,0.003,-0.0038,8.1
0.539,-0.0128,0.0292,-0.0008,0.0,8.0
0.54,-0.0075,0.0412,-0.0046,0.0105,7.9
0.541,0.003,0.0352,-0.0105,0.0187,7.9
0.542,0.0195,0.039,-0.0098,0.009,7.9
0.543,0.0262,0.0292,0.0045,0.0082,7.9
0.544,0.0105,0.0097,0.0105,0.0127,7.9
0.545,-0.0203,0.003,0.0067,0.0105,7.9
0.546,-0.0368,-0.0203,-0.0015,0.0127,7.9
0.547,-0.0158,-0.0346,-0.0068,0.0172,7.8
0.548,0.0097,-0.0248,-0.0068,0.0172,7.8
0.549,0.0075,-0.0188,-0.0075,0.012,7.8
0.55,0.003,-0.024,-0.0038,0.0045,7.8
0.551,-0.006,-0.024,-0.0015,0.0,7.8
0.552,-0.0075,-0.0203,-0.0046,-0.0038,7.7
0.553,0.0007,-0.0188,-0.0053,-0.0083,7.7
0.554,0.0082,-0.0143,-0.0038,-0.012,7.7
0.555,0.0157,-0.0165,0.0007,-0.0143,7.7
0.556,0.0045,-0.0105,0.0007,-0.012,7.7
0.557,-0.0046,-0.0046,-0.0023,-0.0098,7.6
0.558,0.0082,0.003,-0.003,-0.0113,7.6
0.559,0.0157,0.0142,-0.0046,-0.0128,7.6
0.56,-0.0068,0.0195,-0.0091,-0.0128,7.6
0.561,-0.0361,0.0195,-0.0128,-0.012,7.6
0.562,-0.0563,0.0172,-0.0135,-0.0091,7.7
0.563,-0.0578,0.0165,-0.012,-0.0068,7.7
0.564,-0.0293,0.0127,-0.0091,-0.0083,7.8
0.565,-0.0098,0.0112,-0.0105,-0.0128,7.9
0.566,0.0015,0.0097,-0.0098,-0.0128,7.9
0.567,0.0105,0.0105,-0.0113,-0.0105,8.0
0.568,0.0112,0.0157,-0.0128,-0.0083,8.1
0.569,0.0157,0.0097,-0.0105,-0.0075,8.1
0.57,0.0142,-0.003,-0.0046,-0.0083,8.2
0.571,0.0157,-0.006,-0.003,-0.003,8.2
0.572,0.0165,-0.003,0.0007,-0.0023,8.3
0.573,0.0127,0.003,0.0052,-0.0023,8.4
0.574,0.0082,0.003,0.006,-0.0008,8.4
0.575,0.0052,-0.0068,0.0082,-0.0008,8.5
0.576,0.0052,0.0052,0.0082,-0.003,8.5
0.577,0.0045,0.009,0.0067,-0.0053,8.6
0.578,0.0015,-0.0158,0.0067,-0.0053,8.6
0.579,-0.003,-0.0165,0.0045,0.0007,8.7
0.58,-0.0053,-0.0113,0.0045,0.0015,8.8
0.581,-0.006,-0.0105,0.003,-0.0046,8.8
0.582,-0.0068,-0.0075,-0.003,-0.0068,8.8
0.583,-0.0046,-0.0091,-0.0038,-0.0098,8.9
0.584,0.0022,-0.0053,-0.0015,-0.0083,8.9
0.585,0.0187,-0.0015,-0.0008,-0.0075,8.9
0.586,0.0307,-0.0038,-0.0008,-0.012,8.9
0.587,0.024,-0.0053,0.0015,-0.0143,9.0
0.588,0.0052,-0.0053,0.0015,-0.0135,9.0
0.589,-0.0053,-0.0053,0.0022,-0.0113,9.0
0.59,-0.0046,-0.0053,0.003,-0.012,9.0
0.591,-0.0038,-0.0008,0.0,-0.0098,9.0
0.592,-0.0053,0.0045,-0.0023,-0.0091,9.1
0.593,-0.0046,0.0045,-0.0015,-0.0098,9.1
0.594,-0.0053,-0.0008,0.0015,-0.0105,9.1
0.595,0.0,-0.0015,0.0037,-0.0091,9.1
0.596,0.0105,-0.0023,0.0082,-0.0075,9.2
0.597,0.009,-0.0046,0.0127,-0.0083,9.2
0.598,0.0,-0.0038,0.0105,-0.006,9.2
0.599,0.0037,-0.0008,0.0052,-0.0053,9.2
0.6,0.0105,0.003,0.0022,-0.003,9.3
0.601,0.009,0.0007,0.0045,-0.003,9.2
0.602,0.003,0.0015,0.0037,-0.0038,9.2
0.603,-0.006,0.0015,0.0015,-0.0038,9.1
0.604,-0.0098,-0.003,-0.003,-0.003,9.0
0.605,-0.0105,-0.0053,-0.0038,-0.0008,9.0
0.606,-0.0135,-0.0091,-0.0015,-0.0008,8.9
0.607,-0.0173,-0.012,0.0,-0.0015,8.8
0.608,-0.0278,-0.012,0.0045,0.0,8.8
0.609,-0.0533,-0.0113,0.0052,-0.0008,8.7
0.61,-0.0465,-0.0098,0.0052,0.0,8.6
0.611,-0.003,-0.0091,0.0045,0.0015,8.5
0.612,0.009,-0.012,0.006,0.0015,8.5
0.613,0.0015,-0.0143,0.009,0.0015,8.5
0.614,-0.0008,-0.0158,0.0112,0.0052,8.4
0.615,-0.003,-0.015,0.006,0.009,8.3
0.616,0.003,-0.012,0.0,0.0067,8.2
0.617,-0.0008,-0.0105,-0.0015,0.0022,8.1
0.618,0.0,-0.0091,-0.0046,0.0007,8.1
0.619,0.0022,-0.0075,-0.0015,-0.0008,8.1
0.62,0.0007,-0.006,0.0022,-0.0015,7.9
0.621,-0.003,-0.0083,0.0022,0.003,7.9
0.622,-0.0053,-0.0113,0.0082,0.0082,7.8
0.623,0.0015,-0.0143,0.0165,0.009,7.7
0.624,0.0052,-0.015,0.0142,0.0037,7.6
0.625,0.0105,-0.015,0.0082,0.0067,7.5
0.626,0.0217,-0.0165,0.009,0.0067,7.4
0.627,0.0202,-0.0181,0.0052,0.0015,7.3
0.628,0.0075,-0.0165,-0.0015,0.0022,7.2
0.629,0.0075,-0.0143,-0.0083,0.0015,7.2
0.63,0.0157,-0.0188,-0.0128,0.0007,7.1
0.631,0.0157,-0.0218,-0.015,0.0,7.0
0.632,0.012,-0.0225,-0.0105,-0.0008,6.9
0.633,0.003,-0.0256,-0.003,-0.0008,6.8
0.634,-0.0038,-0.0278,-0.0068,-0.003,6.7
0.635,-0.0053,-0.0278,-0.0105,-0.0038,6.7
0.636,-0.006,-0.0248,-0.0091,-0.0023,6.6
0.637,-0.0053,-0.0218,-0.003,-0.0023,6.5
0.638,-0.0053,-0.0195,-0.0008,-0.0023,6.4
0.639,-0.0046,-0.0128,0.0,-0.0015,6.3
0.64,-0.0053,-0.0105,0.0007,-0.0023,6.2
0.641,-0.0083,-0.0128,-0.0015,-0.0038,6.2
0.642,-0.0053,-0.0083,-0.0015,-0.003,6.1
0.643,-0.0053,-0.003,-0.003,-0.0008,6.1
0.644,-0.006,-0.0015,-0.0038,-0.0015,6.1
0.645,-0.0046,0.003,-0.0008,-0.0015,6.0
0.646,-0.0023,0.0105,-0.0023,0.0007,6.0
0.647,-0.0015,0.0187,-0.0023,0.0007,5.9
0.648,-0.0023,0.027,-0.0015,0.0015,5.9
0.649,-0.003,0.036,-0.0015,-0.0015,5.9
0.65,-0.0046,0.0427,0.0007,-0.0046,5.8
0.651,-0.0015,0.0502,-0.0008,-0.0046,5.8
0.652,-0.0015,0.0577,-0.0023,-0.0046,5.8
0.653,-0.0038,0.06,-0.0038,0.003,5.8
0.654,-0.006,0.06,-0.0046,0.0105,5.7
0.655,-0.0128,0.0555,-0.003,0.018,5.7
0.656,-0.012,0.0487,-0.0008,0.0172,5.6
0.657,0.0067,0.0457,0.0007,0.0067,5.6
0.658,0.0202,0.0397,-0.0023,0.0007,5.6
0.659,0.0157,0.033,-0.0038,-0.0053,5.5
0.66,0.0112,0.0277,-0.0038,-0.0046,5.4
0.661,-0.0105,0.0255,-0.0023,-0.003,5.4
0.662,-0.042,0.0195,0.0007,-0.0038,5.4
0.663,-0.0548,0.0127,0.0045,0.0007,5.4
0.664,-0.0346,0.0082,0.006,0.0015,5.3
0.665,-0.0098,0.0045,0.006,0.0022,5.3
0.666,-0.0053,0.0015,0.0045,0.0007,5.3
0.667,0.0015,-0.003,0.003,0.0007,5.2
0.668,0.0015,-0.0091,0.0022,0.0045,5.2
0.669,0.0015,-0.0143,0.0007,0.0045,5.2
0.67,0.003,-0.0165,0.0022,0.0015,5.1
0.671,0.0022,-0.0158,0.0015,-0.0068,5.1
0.672,0.0067,-0.0173,0.003,-0.0128,5.0
0.673,0.006,-0.0181,0.0022,-0.0135,5.0
0.674,0.009,-0.0165,-0.0008,-0.0128,5.0
0.675,0.0082,-0.0143,-0.0008,-0.0083,4.9
0.676,0.006,-0.0165,-0.0023,-0.003,4.9
0.677,0.003,-0.024,-0.0015,-0.0015,4.9
0.678,0.0,-0.0308,-0.003,-0.0023,4.9
0.679,-0.0008,-0.0353,-0.0023,-0.003,4.8
0.68,-0.0008,-0.0361,-0.0015,-0.0015,4.7
0.681,0.0007,-0.03,-0.0015,0.0,4.7
0.682,0.0007,-0.0248,0.0,0.0037,4.7
0.683,-0.0015,-0.0195,-0.0023,0.0067,4.6
0.684,-0.0015,-0.0128,-0.0015,0.0067,4.6
0.685,-0.0008,-0.0091,-0.0008,0.0067,4.5
0.686,-0.0015,-0.0046,-0.0046,0.009,4.5
0.687,-0.0008,-0.0015,-0.0053,0.0067,4.5
0.688,-0.003,-0.0008,-0.0038,0.003,4.5
0.689,-0.0105,0.0,-0.0046,0.0022,4.4
0.69,-0.0158,0.0007,-0.0053,0.0,4.4
0.691,-0.0128,0.0015,-0.0053,-0.0015,4.3
0.692,-0.0068,0.0015,-0.0053,-0.0008,4.3
0.693,-0.003,0.003,-0.0015,-0.0008,4.2
0.694,0.0022,0.0052,0.0,-0.0023,4.2
0.695,0.0052,0.0067,0.0007,-0.0015,4.1
0.696,0.0052,0.0045,0.0022,-0.0015,4.1
0.697,0.0067,0.0,0.0037,-0.0008,4.1
0.698,0.0105,-0.0015,0.003,-0.003,4.0
0.699,0.0127,0.0007,0.0015,-0.003,4.0
0.7,0.0135,0.0007,0.003,-0.003,3.9
0.701,0.012,-0.0023,0.003,-0.0038,3.9
0.702,0.0015,-0.0068,0.0015,-0.003,3.9
0.703,-0.0053,-0.0053,-0.0008,-0.0046,3.8
0.704,-0.0053,-0.003,-0.0008,-0.0015,3.7
0.705,-0.003,-0.0053,-0.0008,-0.0015,3.7
0.706,-0.003,-0.0113,-0.0008,-0.0046,3.6
0.707,-0.0046,-0.0113,-0.003,-0.0046,3.6
0.708,-0.003,-0.0091,-0.0023,-0.0053,3.6
0.709,-0.0015,-0.0083,0.0007,-0.0038,3.5
0.71,-0.003,-0.0053,0.0007,-0.0038,3.4
0.711,-0.0038,-0.003,-0.0015,-0.003,3.4
0.712,-0.0046,-0.0023,-0.0008,-0.003,3.3
0.713,-0.0046,-0.0023,0.0015,-0.003,3.3
0.714,-0.0038,0.0007,0.0022,-0.0008,3.2
0.715,-0.0053,0.0067,0.0022,-0.003,3.2
0.716,-0.0068,0.009,0.0022,-0.0038,3.1
0.717,-0.0075,0.009,0.0015,0.0015,3.1
0.718,-0.0075,0.0127,0.0007,0.0015,3.0
0.719,-0.006,0.0165,0.0045,0.0015,3.0
0.72,-0.0075,0.0202,0.0067,0.0022,2.9
0.721,-0.0075,0.0247,0.0067,0.0052,2.9
0.722,-0.0068,0.027,0.0082,0.0067,2.8
0.723,-0.0083,0.027,0.0067,0.003,2.7
0.724,-0.0053,0.0262,0.0037,0.0007,2.6
0.725,0.0,0.024,0.0015,0.0015,2.6
0.726,0.0112,0.0225,0.0007,0.0045,2.5
0.727,0.0097,0.0217,0.0007,0.0022,2.5
0.728,-0.0015,0.0225,-0.0008,0.0007,2.4
0.729,0.0,0.0195,-0.0008,0.0007,2.3
0.73,0.0007,0.015,0.0007,-0.003,2.2
0.731,-0.0008,0.0127,0.0007,-0.0075,2.2
0.732,0.0,0.0135,0.0007,-0.0098,2.2
0.733,0.0,0.0127,0.003,-0.0113,2.1
0.734,0.0007,0.0067,0.0022,-0.0046,2.0
0.735,-0.0015,0.0052,0.0022,-0.0038,1.9
0.736,-0.0046,0.0022,0.003,-0.0038,1.9
0.737,-0.0015,-0.0015,0.003,0.0,1.8
0.738,0.0007,-0.0053,0.0015,0.0007,1.8
0.739,-0.0015,-0.0083,-0.0015,0.0022,1.7
0.74,-0.0083,-0.0091,0.0007,0.0,1.6
0.741,-0.0158,-0.0105,0.003,0.0,1.6
0.742,-0.012,-0.006,0.0007,-0.0015,1.5
0.743,0.0045,-0.003,0.0007,-0.0008,1.4
0.744,0.0067,-0.0015,-0.0015,0.0015,1.4
0.745,0.0045,0.0007,-0.0038,0.0007,1.3
0.746,0.0045,0.0022,-0.003,0.0007,1.3
0.747,-0.0068,0.0052,-0.0053,-0.0008,1.2
0.748,-0.0128,0.0037,-0.0068,0.0007,1.2
0.749,-0.0098,0.0052,-0.0053,0.0015,1.1
0.75,-0.0053,0.0082,-0.0046,0.003,1.0
0.751,-0.0053,0.0075,-0.0046,0.0015,1.0
0.752,-0.0053,0.009,-0.0053,0.0007,0.9
0.753,-0.0038,0.0097,-0.0046,0.003,0.9
0.754,-0.003,0.009,-0.0038,0.0015,0.8
0.755,-0.0023,0.0067,-0.003,0.0007,0.7
0.756,-0.0023,0.0015,-0.0015,0.0007,0.7
0.757,-0.0015,-0.0023,0.0007,-0.0015,0.6
0.758,-0.0015,-0.0046,-0.0015,-0.0008,0.6
0.759,0.0007,-0.0023,-0.0023,-0.0008,0.5
0.76,0.0022,0.0007,-0.0015,-0.0015,0.4
0.761,0.0,-0.0023,-0.0008,0.0,0.4
0.762,-0.0023,-0.0046,0.0015,-0.0008,0.4
0.763,-0.0053,-0.0053,0.0015,-0.0015,0.4
0.764,-0.0091,-0.0053,0.0015,-0.0015,0.4
0.765,-0.0083,-0.0053,0.0022,-0.0008,0.3
0.766,0.0007,-0.0046,0.003,-0.0038,0.3
0.767,0.0105,-0.006,0.0022,-0.0046,0.3
0.768,0.0157,-0.0075,0.0015,-0.003,0.3
0.769,0.018,-0.0105,0.0015,-0.0038,0.2
0.77,0.0172,-0.0105,0.0022,-0.0008,0.2
0.771,0.0127,-0.0105,0.003,-0.0015,0.2
0.772,-0.0053,-0.012,0.003,-0.0008,0.1
0.773,-0.0308,-0.0128,0.0037,-0.0015,0.1
0.774,-0.039,-0.0135,0.0015,-0.003,0.1
0.775,-0.0233,-0.0143,0.0037,0.0,0.1
0.776,-0.0046,-0.0165,0.0052,-0.0008,0.0
0.777,0.0022,-0.0158,0.0045,-0.0008,0.0
0.778,0.0075,-0.0143,0.003,-0.0023,0.0
0.779,0.0082,-0.0105,-0.0008,-0.0015,0.0
0.78,0.0112,-0.0083,-0.0023,-0.0023,-0.1
0.781,0.0082,-0.0098,-0.0046,-0.0015,-0.1
0.782,-0.0053,-0.0075,-0.0046,-0.0023,-0.1
0.783,-0.0008,-0.0038,-0.0023,-0.0038,-0.1
0.784,-0.0008,-0.003,-0.0008,-0.0015,-0.1
0.785,-0.0008,-0.0015,-0.0015,0.0007,-0.1
0.786,0.0015,-0.0008,-0.0008,0.003,-0.1
0.787,0.0007,0.0015,0.0007,0.0,-0.2
0.788,0.003,0.0015,-0.0008,0.0,-0.2
0.789,-0.0008,0.0037,-0.003,0.0007,-0.2
0.79,-0.0008,0.0067,-0.0046,-0.0008,-0.2
0.791,-0.003,0.009,-0.0046,-0.0008,-0.2
0.792,-0.0038,0.0105,-0.0046,-0.0038,-0.3
0.793,-0.0046,0.012,-0.0053,-0.0046,-0.3
0.794,-0.0046,0.012,-0.0046,-0.0053,-0.3
0.795,-0.0023,0.009,-0.0046,-0.003,-0.3
0.796,-0.0046,0.0082,-0.0046,-0.0008,-0.3
0.797,-0.0038,0.006,-0.0015,-0.0015,-0.4
0.798,-0.0015,0.0015,-0.0008,-0.0023,-0.4
0.799,0.0007,-0.0015,-0.0023,-0.003,-0.4
0.8,0.0007,-0.0053,-0.0046,-0.0053,-0.5
0.801,-0.0008,-0.0083,-0.0023,-0.0068,-0.5
0.802,0.0,-0.0083,-0.0015,-0.0053,-0.5
0.803,0.0007,-0.0105,0.0015,-0.0038,-0.5
0.804,0.0007,-0.012,0.0045,-0.0023,-0.5
0.805,0.0015,-0.0098,0.003,0.0007,-0.5
0.806,0.003,-0.0053,0.0022,0.003,-0.5
0.807,-0.0023,-0.0053,0.0015,0.0037,-0.5
0.808,-0.0068,-0.0083,0.0007,-0.0008,-0.5
0.809,-0.0075,-0.0091,0.0015,-0.0023,-0.5
0.81,-0.0075,-0.012,0.003,-0.0023,-0.5
0.811,-0.006,-0.0165,0.0045,-0.0008,-0.5
0.812,-0.0075,-0.0203,0.0052,0.0007,-0.5
0.813,-0.0068,-0.024,0.0052,0.0015,-0.5
0.814,0.0007,-0.0285,0.0067,0.0007,-0.5
0.815,0.0037,-0.0278,0.0067,-0.0008,-0.5
0.816,0.0022,-0.0263,0.0075,0.0007,-0.5
0.817,-0.0008,-0.0203,0.006,0.003,-0.5
0.818,-0.0008,-0.0195,0.0022,0.0007,-0.5
0.819,-0.0015,-0.0181,0.0015,-0.003,-0.5
0.82,-0.0015,-0.0165,-0.0008,-0.0046,-0.5
0.821,-0.0015,-0.0195,-0.003,-0.0046,-0.5
0.822,-0.0015,-0.0158,-0.0046,-0.0046,-0.5
0.823,-0.0015,-0.0128,-0.0053,-0.0038,-0.5
0.824,-0.0023,-0.0091,-0.0038,-0.0008,-0.5
0.825,-0.0015,-0.0046,-0.0046,0.0007,-0.5
0.826,-0.0015,-0.0008,-0.0038,0.0,-0.5
0.827,0.0007,0.003,-0.0046,-0.0008,-0.5
0.828,0.0,0.0067,-0.003,-0.0008,-0.5
0.829,-0.003,0.0105,0.0,-0.0008,-0.5
0.83,-0.0023,0.0112,0.0,-0.0015,-0.5
0.831,-0.0008,0.0112,0.0,-0.0008,-0.5
0.832,-0.0008,-0.0008,-0.0008,0.0,-0.5
0.833,-0.003,-0.0788,-0.0015,0.0007,-0.5
0.834,-0.003,-0.222,-0.0015,0.0007,-0.5
0.835,-0.0023,-0.2858,-0.0038,0.0015,-0.5
0.836,-0.0015,-0.2655,-0.0023,0.003,-0.5
0.837,-0.003,-0.2468,-0.0015,0.0022,-0.5
0.838,-0.003,-0.1988,-0.0008,0.006,-0.5
0.839,-0.0008,-0.1575,0.0007,0.0067,-0.5
0.84,0.003,-0.1155,0.0,0.0067,-0.5
0.841,0.0045,-0.0721,0.003,0.0075,-0.5
0.842,0.0075,-0.042,0.0045,0.0045,-0.5
0.843,0.0142,-0.0046,0.0045,0.0045,-0.5
0.844,0.0067,0.0217,0.0052,0.0037,-0.5
0.845,-0.0046,0.051,0.0037,-0.0008,-0.4
0.846,-0.0038,0.0727,0.0015,-0.003,-0.4
0.847,-0.0046,0.0892,0.0015,-0.0046,-0.4
0.848,-0.0046,0.1012,0.0022,-0.0053,-0.4
0.849,-0.003,0.1095,0.0022,-0.0068,-0.4
0.85,-0.0046,0.117,0.0022,-0.0068,-0.4
0.851,-0.0023,0.1177,0.0022,-0.0023,-0.4
0.852,-0.0015,0.1207,0.0045,0.0052,-0.4
0.853,-0.0015,0.1222,0.0067,0.0067,-0.4
0.854,-0.0023,0.1222,0.0052,0.0045,-0.4
0.855,-0.0015,0.1222,0.003,0.0082,-0.4
0.856,-0.0008,0.12,0.0015,0.0045,-0.4
0.857,0.0007,0.114,0.0037,0.0007,-0.4
0.858,-0.0008,0.1065,0.0022,-0.0015,-0.4
0.859,-0.0008,0.1005,0.0007,-0.003,-0.4
0.86,-0.0015,0.0915,-0.0008,-0.003,-0.4
0.861,-0.0038,0.0862,-0.0015,-0.0068,-0.4
0.862,-0.003,0.0802,-0.0023,-0.0091,-0.4
0.863,-0.0015,0.0735,-0.003,-0.012,-0.3
0.864,-0.0015,0.0712,-0.0046,-0.0091,-0.3
0.865,-0.0008,0.0675,-0.0053,-0.006,-0.3
0.866,-0.0008,0.057,-0.0038,-0.0008,-0.3
0.867,-0.0023,0.0502,-0.003,0.0015,-0.3
0.868,-0.0046,0.0465,-0.0023,0.0007,-0.3
0.869,-0.0046,0.0427,-0.0023,0.003,-0.3
0.87,-0.006,0.0367,-0.003,0.0022,-0.3
0.871,-0.0068,0.033,-0.0038,0.0,-0.3
0.872,-0.0075,0.0322,-0.0015,0.0007,-0.3
0.873,-0.0046,0.0285,-0.0023,0.003,-0.2
0.874,-0.0008,0.0225,-0.0046,-0.0008,-0.2
0.875,0.0007,0.0157,-0.0015,-0.0008,-0.2
0.876,-0.0015,0.0127,-0.0008,0.0015,-0.2
0.877,-0.0023,0.012,-0.0008,-0.0008,-0.2
0.878,-0.003,0.0075,-0.0015,-0.0015,-0.2
0.879,-0.0038,0.0052,-0.0023,-0.0015,-0.2
0.88,-0.0008,0.0015,-0.0023,-0.0015,-0.2
0.881,-0.0008,-0.0008,-0.0015,-0.0015,-0.2
0.882,-0.0008,-0.0023,-0.0008,-0.0015,-0.2
0.883,-0.006,-0.0046,0.0007,-0.003,-0.2
0.884,-0.0128,-0.0091,0.003,-0.0023,-0.1
0.885,-0.0068,-0.0128,0.0045,-0.0038,-0.1
0.886,0.0015,-0.0143,0.003,-0.0046,-0.1
0.887,-0.0008,-0.0181,0.0015,-0.003,-0.1
0.888,0.0,-0.0181,0.0,-0.0023,-0.1
0.889,-0.0015,-0.0181,0.0007,-0.0023,-0.1
0.89,-0.0046,-0.0218,-0.0015,-0.003,-0.1
0.891,-0.0068,-0.024,-0.0008,-0.0046,-0.1
0.892,-0.0053,-0.027,-0.0008,-0.006,-0.1
0.893,-0.0008,-0.0293,-0.0008,-0.006,-0.1
0.894,-0.0015,-0.0278,0.0,-0.0046,-0.1
0.895,-0.0008,-0.0293,0.0007,-0.003,-0.1
0.896,-0.0023,-0.0293,0.0015,0.0,-0.1
0.897,-0.0046,-0.024,0.0,0.0,0.0
0.898,-0.0008,-0.0218,0.0,-0.0008,0.0
0.899,0.0082,-0.0181,0.0007,-0.0008,0.0
0.9,0.0105,-0.0158,-0.0008,-0.0008,0.0
0.901,0.0,-0.0158,-0.0008,-0.0015,0.0
0.902,-0.0075,-0.0143,-0.0008,-0.0015,0.0
0.903,-0.0105,-0.0091,0.0,0.0007,0.0
0.904,-0.0075,-0.006,0.0015,0.0007,0.0
0.905,0.0015,-0.0068,0.0015,-0.0015,0.0
0.906,-0.0008,-0.0068,0.003,-0.0015,0.0
0.907,-0.0091,-0.0083,0.003,0.0,0.0
0.908,-0.0068,-0.0068,0.003,0.0,0.0
0.909,-0.0038,-0.0046,0.0007,0.0007,0.0
0.91,-0.003,-0.0015,0.0,0.0007,0.0
0.911,0.0067,0.0007,0.0037,0.0007,0.0
0.912,0.0105,0.0007,0.0037,0.0007,0.0
0.913,0.003,0.0007,0.0045,0.0,0.0
0.914,-0.0008,0.0052,0.0045,-0.0015,0.0
0.915,-0.0015,0.0075,0.0007,-0.0015,0.0
0.916,-0.003,0.006,0.0022,-0.0008,0.0
0.917,-0.0008,0.003,0.0015,-0.0008,0.1
0.918,-0.0015,-0.0023,0.0015,0.0,0.1
0.919,-0.0038,-0.006,0.0007,-0.0015,0.1
0.92,-0.0046,-0.0075,-0.0008,-0.0015,0.1
0.921,-0.0046,-0.0091,-0.0008,0.0,0.1
0.922,-0.0046,-0.0068,-0.0015,0.0015,0.1
0.923,-0.0038,-0.0083,-0.003,0.0007,0.1
0.924,-0.003,-0.0083,-0.006,0.0,0.1
0.925,-0.003,-0.0023,-0.0046,-0.0008,0.1
0.926,-0.0015,0.0015,-0.003,-0.0038,0.1
0.927,0.0007,0.003,-0.0046,-0.0046,0.1
0.928,0.0007,0.0052,-0.003,-0.003,0.2
0.929,-0.0008,0.0075,-0.0023,-0.0008,0.2
0.93,0.0,0.009,-0.003,0.0007,0.2
0.931,0.003,0.0067,-0.0015,0.0037,0.2
0.932,0.0037,0.003,0.0015,0.006,0.2
0.933,0.003,-0.0015,0.0007,0.0045,0.2
0.934,0.0007,-0.003,-0.003,0.0037,0.2
0.935,0.0007,-0.003,-0.0015,0.003,0.2
0.936,-0.0023,-0.0053,-0.0015,0.0045,0.2
0.937,-0.003,-0.0053,-0.0015,0.0037,0.2
0.938,-0.0023,-0.0068,-0.0023,0.0022,0.3
0.939,-0.0046,-0.0083,-0.0008,0.0022,0.3
0.94,-0.003,-0.0068,-0.0008,0.0007,0.3
0.941,-0.0023,-0.0091,0.0022,0.0007,0.3
0.942,-0.0046,-0.0105,0.0037,-0.0015,0.3
0.943,-0.0046,-0.0098,0.003,-0.0008,0.3
0.944,-0.0038,-0.0083,0.003,0.0015,0.3
0.945,-0.003,-0.0083,0.0022,0.0015,0.3
0.946,-0.0015,-0.012,0.0022,0.0015,0.3
0.947,-0.0015,-0.0173,0.0015,0.0,0.3
0.948,0.0022,-0.021,0.0015,-0.0015,0.4
0.949,0.0045,-0.0181,0.003,-0.0008,0.4
0.95,0.0022,-0.012,0.003,-0.0015,0.4
0.951,0.0,-0.0113,0.0015,-0.0023,0.4
0.952,-0.0023,-0.012,0.0007,-0.0015,0.4
0.953,-0.003,-0.0128,0.0022,-0.003,0.4
0.954,-0.0038,-0.0158,0.0015,-0.0015,0.4
0.955,-0.003,-0.0165,-0.0008,-0.0023,0.4
0.956,-0.0038,-0.0143,-0.0023,-0.003,0.4
0.957,-0.0053,-0.012,-0.003,0.0007,0.4
0.958,-0.0046,-0.0105,-0.0015,0.0015,0.4
0.959,-0.003,-0.012,-0.0015,0.0,0.4
0.96,-0.0015,-0.015,-0.0015,-0.0015,0.4
0.961,-0.0015,-0.0195,-0.0008,-0.0015,0.4
0.962,-0.0046,-0.021,-0.0023,-0.0008,0.5
0.963,-0.0091,-0.0218,-0.0068,0.0007,0.5
0.964,-0.003,-0.0195,-0.0083,0.0007,0.5
0.965,0.009,-0.015,-0.0046,0.0,0.5
0.966,0.0127,-0.0105,-0.0015,0.0007,0.5
0.967,0.0015,-0.006,0.003,-0.0023,0.6
0.968,-0.0068,-0.0023,0.0045,-0.0015,0.6
0.969,-0.003,-0.0008,0.003,-0.0015,0.6
0.97,-0.0046,-0.003,0.003,-0.003,0.6
0.971,-0.0015,-0.0053,-0.0008,-0.0015,0.6
0.972,-0.0008,-0.003,-0.0023,-0.003,0.7
0.973,-0.0015,-0.0015,0.0015,-0.0023,0.7
0.974,-0.0008,0.003,0.0015,-0.0023,0.7
0.975,-0.0008,0.0082,0.0015,-0.0015,0.7
0.976,0.0007,0.012,0.003,-0.0015,0.7
0.977,-0.0015,0.0165,0.0015,-0.003,0.8
0.978,-0.0023,0.0195,0.003,-0.003,0.8
0.979,-0.0015,0.021,0.003,-0.0046,0.8
0.98,-0.0023,0.0217,0.0007,-0.0068,0.8
0.981,-0.003,0.0187,-0.0015,-0.0053,0.8
0.982,-0.0046,0.0142,-0.0015,-0.0015,0.9
0.983,-0.0046,0.0135,-0.0008,-0.003,0.9
0.984,-0.0046,0.012,-0.0008,-0.0023,0.9
0.985,-0.003,0.0127,0.0,-0.0015,0.9
0.986,-0.0053,0.0105,-0.0008,-0.0015,0.9
0.987,-0.0053,0.012,-0.0015,-0.0023,0.9
0.988,-0.0008,0.018,-0.0023,-0.003,0.9
0.989,0.0037,0.0195,-0.0038,-0.003,0.9
0.99,0.0015,0.0202,-0.003,-0.003,1.0
0.991,-0.0038,0.0202,-0.0023,-0.0023,1.0
0.992,-0.0046,0.0202,-0.0023,-0.0015,1.0
0.993,-0.0038,0.0135,-0.0015,0.0015,1.0
0.994,-0.003,0.0127,-0.0008,0.0015,1.0
0.995,-0.0023,0.012,-0.0015,0.0015,1.0
0.996,-0.0038,0.0067,-0.003,0.0022,1.1
0.997,-0.0015,0.0015,-0.0023,0.0022,1.1
0.998,-0.0023,-0.003,-0.003,0.0007,1.1
0.999,-0.0038,-0.0053,-0.0046,-0.0008,1.1
1.0,-0.003,-0.0098,-0.003,-0.0008,1.1
1.001,0.0,-0.0105,-0.0015,-0.0015,1.1
1.002,0.0015,-0.0128,-0.0023,0.0,1.2
1.003,0.0007,-0.0173,0.0,0.0007,1.2
1.004,-0.003,-0.0181,-0.0008,0.0007,1.2
1.005,-0.0105,-0.0165,-0.003,-0.0008,1.3
1.006,-0.0083,-0.0128,-0.0023,-0.003,1.3
1.007,-0.0008,-0.0083,-0.0008,-0.0023,1.3
1.008,0.0105,-0.006,0.0,-0.003,1.3
1.009,0.0262,-0.006,-0.0008,-0.0015,1.3
1.01,0.03,-0.0046,-0.0008,0.0015,1.3
1.011,0.0247,-0.0038,0.0015,0.0015,1.3
1.012,0.0142,-0.006,0.0015,-0.0015,1.4
1.013,-0.0083,-0.0105,0.0007,-0.0008,1.4
1.014,-0.0323,-0.0143,0.003,0.0,1.4
1.015,-0.0346,-0.0143,0.0052,0.0007,1.5
1.016,-0.0256,-0.0158,0.0082,0.0015,1.5
1.017,-0.015,-0.0113,0.009,0.0007,1.5
1.018,-0.0046,-0.006,0.0075,-0.0008,1.5
1.019,0.0,-0.006,0.0052,-0.0008,1.6
1.02,-0.0053,-0.003,0.003,-0.0015,1.6
1.021,-0.0105,-0.0015,0.0015,-0.0023,1.6
1.022,-0.0075,0.0,0.003,-0.0015,1.7
1.023,-0.0053,0.0045,0.003,-0.0008,1.7
1.024,-0.0015,0.0052,0.0037,0.0007,1.8
1.025,0.0015,0.0067,0.0037,0.003,1.8
1.026,0.0022,0.0067,0.0015,0.0015,1.8
1.027,0.003,0.006,0.0007,0.0007,1.9
1.028,0.0007,0.0052,-0.0015,0.0015,1.9
1.029,0.0,0.0022,-0.003,-0.0015,2.0
1.03,0.0,0.0007,-0.0015,0.0,2.0
1.031,-0.0015,0.0022,-0.0008,0.0,2.0
1.032,-0.003,-0.0008,-0.0015,-0.003,2.1
1.033,-0.0023,-0.0023,-0.0008,-0.003,2.1
1.034,-0.0015,-0.0023,-0.003,-0.0015,2.2
1.035,-0.0038,-0.0038,-0.0038,-0.0015,2.2
1.036,-0.003,-0.006,-0.003,-0.0023,2.2
1.037,-0.0015,-0.006,-0.003,-0.003,2.3
1.038,-0.0023,-0.0038,-0.003,-0.0038,2.3
1.039,-0.003,-0.0038,-0.0038,-0.0046,2.4
1.04,-0.0023,-0.0015,-0.0038,-0.0046,2.4
1.041,-0.0015,-0.0015,-0.0046,-0.003,2.5
1.042,-0.0008,-0.0015,-0.0023,-0.0023,2.5
1.043,-0.0015,-0.0053,-0.0008,-0.0015,2.6
1.044,-0.0038,-0.0098,0.0015,-0.0015,2.6
1.045,-0.003,-0.0113,0.0022,-0.0015,2.6
1.046,-0.003,-0.0113,0.0007,-0.0023,2.7
1.047,-0.0053,-0.012,0.003,-0.0023,2.7
1.048,-0.0083,-0.012,0.0007,-0.0008,2.8
1.049,-0.0083,-0.012,0.0,-0.0015,2.8
1.05,-0.0053,-0.0113,-0.0008,-0.003,2.9
1.051,-0.0015,-0.0083,-0.0008,-0.0015,3.0
1.052,0.003,-0.003,0.0015,-0.003,3.0
1.053,0.0075,-0.003,0.0007,-0.0015,3.1
1.054,0.0165,-0.0053,0.0007,-0.0008,3.1
1.055,0.0217,-0.0075,-0.0008,-0.0023,3.1
1.056,0.0202,-0.0075,-0.0015,-0.003,3.2
1.057,0.018,-0.0098,0.003,-0.003,3.2
1.058,0.0052,-0.012,0.0052,-0.003,3.3
1.059,-0.0053,-0.0143,0.0037,-0.003,3.3
1.06,-0.0075,-0.0158,0.0007,-0.003,3.4
1.061,-0.0091,-0.0165,-0.003,-0.003,3.4
1.062,-0.0091,-0.0181,-0.0038,-0.0023,3.5
1.063,-0.0091,-0.012,-0.0053,-0.0015,3.6
1.064,-0.0068,-0.0083,-0.0068,-0.0008,3.6
1.065,-0.0068,-0.0075,-0.0053,0.0015,3.7
1.066,-0.0083,-0.0053,-0.0046,0.0022,3.8
1.067,-0.0091,-0.0023,-0.0038,0.0015,3.8
1.068,-0.0091,-0.0015,-0.0053,0.0022,3.9
1.069,-0.0083,-0.0008,-0.0015,0.0022,4.0
1.07,-0.0105,-0.0015,0.0007,0.0045,4.0
1.071,-0.006,0.0,0.0015,0.003,4.1
1.072,-0.0083,0.0045,0.0052,0.0015,4.1
1.073,-0.0128,0.0067,0.0075,0.003,4.2
1.074,-0.0143,0.009,0.0097,0.0007,4.3
1.075,-0.0128,0.0112,0.0112,0.0007,4.4
1.076,-0.0075,0.0142,0.0105,0.0015,4.4
1.077,-0.0008,0.018,0.0082,-0.0008,4.5
1.078,0.003,0.0165,0.0067,-0.0008,4.5
1.079,-0.0008,0.012,0.0015,0.0007,4.6
1.08,0.0075,0.0105,-0.0038,0.003,4.7
1.081,0.0315,0.0082,-0.003,0.003,4.8
1.082,0.054,0.0052,0.0037,0.0015,4.9
1.083,0.042,0.0015,0.003,-0.0023,4.9
1.084,0.009,-0.0038,0.0,-0.0068,5.0
1.085,-0.0053,-0.0068,-0.0015,-0.0083,5.1
1.086,-0.0128,-0.0091,-0.0038,-0.0068,5.2
1.087,-0.0135,-0.0068,-0.0038,-0.0046,5.3
1.088,-0.0105,-0.003,-0.0046,-0.0038,5.3
1.089,-0.0091,-0.0015,-0.0015,-0.0015,5.4
1.09,-0.0068,-0.0023,-0.0015,-0.0015,5.5
1.091,-0.0075,-0.0015,-0.006,-0.0008,5.6
1.092,-0.0053,0.0022,-0.0075,-0.0008,5.7
1.093,-0.003,0.0052,-0.0075,-0.0015,5.8
1.094,-0.0015,0.009,-0.0068,-0.0008,5.8
1.095,-0.003,0.012,-0.0068,0.0007,5.9
1.096,-0.0023,0.0127,-0.0068,0.0015,6.0
1.097,-0.0015,0.012,-0.0068,0.0015,6.1
1.098,-0.0008,0.0105,-0.0053,0.0007,6.2
1.099,-0.0015,0.009,-0.0053,0.0015,6.3
1.1,-0.0023,0.009,-0.0046,0.003,6.3
1.101,-0.0038,0.0067,-0.003,0.0022,6.4
1.102,-0.0038,0.0052,-0.003,0.0022,6.6
1.103,-0.0046,0.0037,-0.003,0.0045,6.7
1.104,-0.0068,0.0022,-0.0015,0.003,6.8
1.105,-0.0068,0.0022,0.0007,0.0045,6.9
1.106,-0.0068,0.0015,0.0007,0.0045,7.0
1.107,-0.006,0.0015,0.003,0.0007,7.2
1.108,-0.006,0.0007,0.0045,0.0007,7.2
1.109,-0.006,0.0,0.0045,0.0022,7.4
1.11,-0.0038,-0.0008,0.006,0.003,7.5
1.111,-0.0015,-0.0053,0.0067,0.0037,7.6
1.112,0.0022,-0.0091,0.0045,0.0037,7.7
1.113,0.0052,-0.0083,0.003,0.0045,7.8
1.114,0.0052,-0.0075,0.003,0.0037,7.9
1.115,0.0007,-0.0098,0.003,0.0015,8.1
1.116,-0.0008,-0.0128,0.0015,0.0,8.1
1.117,0.0015,-0.0135,0.0007,-0.0008,8.3
1.118,0.0052,-0.0105,0.003,0.0015,8.4
1.119,0.0037,-0.0068,0.0045,0.0015,8.5
1.12,-0.0015,-0.0008,0.0045,0.0,8.6
1.121,-0.0038,0.003,0.003,0.0007,8.7
1.122,-0.0053,0.006,0.0007,0.0015,8.9
1.123,-0.0068,0.0105,0.0007,0.0,9.0
1.124,-0.0046,0.012,-0.0008,0.0007,9.2
1.125,-0.003,0.0135,0.0007,0.0,9.4
1.126,-0.0046,0.0142,0.0,0.0007,9.5
1.127,-0.003,0.0142,0.0015,0.0015,9.6
1.128,-0.003,0.0127,0.0045,0.0007,9.8
1.129,-0.003,0.009,0.003,-0.0008,9.9
1.13,-0.0015,0.0067,0.003,-0.0008,10.1
1.131,-0.003,0.0037,0.003,0.0007,10.2
1.132,-0.0038,0.0052,0.0007,0.0015,10.4
1.133,-0.0046,0.0067,-0.0008,0.0007,10.5
1.134,-0.0053,0.006,-0.0008,0.0007,10.7
1.135,-0.0068,0.0067,-0.0015,0.0007,10.8
1.136,-0.003,0.0075,-0.0046,0.0,11.0
1.137,-0.0046,0.0082,-0.0068,-0.0008,11.1
1.138,-0.0038,0.0082,-0.006,-0.0015,11.2
1.139,-0.0015,0.0052,-0.0038,-0.0023,11.4
1.14,-0.0015,0.003,-0.0008,-0.0015,11.6
1.141,-0.0015,0.0015,0.003,-0.0023,11.7
1.142,-0.0046,0.0007,0.0045,-0.0023,11.9
1.143,-0.0075,-0.0008,0.0037,-0.0023,12.1
1.144,-0.0046,-0.0008,0.003,0.0007,12.3
1.145,0.0007,-0.0008,0.0067,0.0015,12.5
1.146,0.0022,-0.003,0.009,0.0,12.7
1.147,0.0015,-0.0015,0.006,0.003,12.9
1.148,0.0052,-0.0008,0.003,0.0015,13.1
1.149,0.0105,-0.0023,0.0022,0.0015,13.3
1.15,0.0105,-0.003,0.006,0.003,13.5
1.151,0.009,-0.003,0.0045,0.003,13.6
1.152,0.0052,-0.003,0.0015,0.003,13.8
1.153,0.0,-0.0046,0.0022,0.0,14.0
1.154,-0.0015,-0.0046,0.0022,-0.0015,14.2
1.155,-0.003,-0.0038,0.0015,-0.0015,14.4
1.156,-0.006,-0.0053,0.0,-0.0015,14.6
1.157,-0.006,-0.0075,-0.0008,-0.0008,14.8
1.158,-0.0046,-0.0083,-0.0008,-0.0015,15.0
1.159,-0.003,-0.0083,-0.003,-0.0008,15.2
1.16,-0.0046,-0.0083,-0.0068,-0.0023,15.3
1.161,-0.0046,-0.0075,-0.0075,-0.0008,15.6
1.162,-0.0015,-0.0046,-0.0083,0.0022,15.8
1.163,0.0022,-0.0038,-0.0038,0.0022,16.0
1.164,0.0067,-0.0046,-0.003,0.0015,16.2
1.165,0.0045,-0.0053,-0.003,0.0007,16.5
1.166,0.0,-0.0053,0.0,-0.0008,16.6
1.167,-0.003,-0.003,-0.0015,-0.0008,16.9
1.168,-0.0053,-0.0023,-0.0008,-0.003,17.1
1.169,-0.0038,-0.0015,0.0015,-0.003,17.3
1.17,-0.0038,0.0007,0.0015,-0.003,17.5
1.171,-0.0008,0.0015,0.0015,-0.0046,17.8
1.172,-0.0008,0.0045,0.0007,-0.0038,18.0
1.173,-0.003,0.0067,-0.003,-0.0046,18.2
1.174,-0.003,0.009,-0.006,-0.0068,18.4
1.175,-0.0023,0.0067,-0.0068,-0.0068,18.7
1.176,-0.0023,0.0082,-0.0053,-0.0053,18.9
1.177,-0.0008,0.0105,-0.003,-0.0053,19.1
1.178,-0.0008,0.0082,-0.003,-0.0053,19.3
1.179,-0.003,0.009,0.0,-0.006,19.5
1.18,-0.003,0.009,-0.0008,-0.0046,19.8
1.181,-0.0015,0.006,-0.0008,-0.003,20.0
1.182,-0.0015,0.0052,-0.0015,-0.0046,20.2
1.183,-0.003,0.0037,-0.0053,-0.0046,20.5
1.184,-0.0038,0.003,-0.0046,-0.0023,20.7
1.185,-0.0015,-0.0008,-0.006,-0.0015,21.0
1.186,-0.0023,-0.0046,-0.0053,-0.0015,21.2
1.187,-0.003,-0.0046,-0.0068,-0.0008,21.5
1.188,-0.0046,-0.0053,-0.0135,-0.0015,21.7
1.189,-0.006,-0.0053,-0.0128,-0.003,22.0
1.19,-0.0046,-0.0046,-0.0068,-0.0046,22.3
1.191,-0.0046,-0.0083,-0.0046,-0.0023,22.5
1.192,-0.0038,-0.0128,-0.0015,-0.0015,22.8
1.193,-0.0038,-0.0165,0.0015,-0.003,23.0
1.194,-0.003,-0.0165,0.003,-0.0015,23.3
1.195,-0.0023,-0.0165,0.0045,-0.0015,23.5
1.196,-0.003,-0.0158,0.003,-0.003,23.8
1.197,-0.003,-0.0105,0.003,-0.0008,24.0
1.198,-0.0038,-0.0068,-0.0008,-0.0008,24.3
1.199,-0.003,-0.0046,-0.0053,-0.0008,24.5
1.2,-0.0023,-0.0015,-0.0038,-0.0015,24.7
1.201,-0.003,0.003,-0.0015,-0.003,25.0
1.202,-0.0015,0.006,-0.0008,-0.0046,25.2
1.203,-0.0015,0.0052,0.0,-0.0046,25.5
1.204,-0.0015,0.0045,0.0007,-0.0053,25.7
1.205,-0.0015,0.0037,0.0007,-0.0053,25.9
1.206,-0.0008,0.003,0.0,-0.0053,26.1
1.207,0.0,0.0045,0.0007,-0.0053,26.4
1.208,-0.0008,0.0052,0.0007,-0.0046,26.6
1.209,0.0,0.0052,0.0022,-0.0046,26.9
1.21,-0.0015,0.0052,0.003,-0.0046,27.1
1.211,-0.003,0.0037,0.003,-0.0023,27.4
1.212,-0.003,0.0,0.0037,-0.0023,27.6
1.213,-0.0015,-0.0046,0.0022,-0.0015,27.8
1.214,-0.0015,-0.0091,0.0015,-0.0023,28.1
1.215,-0.0023,-0.0128,0.0015,-0.003,28.3
1.216,-0.003,-0.0128,-0.0008,0.0,28.5
1.217,-0.003,-0.0128,-0.0015,0.0015,28.8
1.218,-0.0038,-0.012,0.0,0.0015,29.0
1.219,-0.0046,-0.0105,-0.0008,0.0,29.2
1.22,-0.0046,-0.012,0.0007,-0.0008,29.5
1.221,-0.0038,-0.0143,0.0007,0.0015,29.7
1.222,-0.0038,-0.015,0.0022,0.0015,29.8
1.223,-0.0038,-0.0143,0.0037,-0.0008,30.0
1.224,-0.0046,-0.0158,0.0045,-0.0023,30.2
1.225,-0.003,-0.0173,0.0052,-0.0015,30.4
1.226,-0.0015,-0.021,0.0045,-0.0008,30.6
1.227,-0.003,-0.024,0.003,-0.0008,30.7
1.228,-0.003,-0.0256,-0.0008,-0.0008,30.9
1.229,-0.003,-0.0256,-0.0008,-0.0008,31.1
1.23,-0.0023,-0.024,0.0007,0.0,31.3
1.231,-0.0015,-0.0218,0.0022,0.0015,31.5
1.232,-0.0023,-0.0181,0.0052,0.0,31.7
1.233,-0.0038,-0.0158,0.0067,-0.0008,31.9
1.234,-0.0053,-0.0143,0.0082,0.0,32.0
1.235,-0.0038,-0.0135,0.009,-0.0015,32.2
1.236,-0.003,-0.015,0.0082,-0.003,32.4
1.237,-0.003,-0.0135,0.0075,-0.0046,32.6
1.238,-0.0046,-0.0091,0.0037,-0.0053,32.8
1.239,-0.0046,-0.0038,0.0037,-0.0068,32.9
1.24,-0.003,0.0037,0.0045,-0.0075,33.1
1.241,-0.0008,0.009,0.0022,-0.0068,33.3
1.242,0.0,0.0105,0.0037,-0.006,33.4
1.243,0.0015,0.0105,0.0015,-0.006,33.5
1.244,0.0022,0.0097,0.0015,-0.0068,33.6
1.245,0.0007,0.009,0.0022,-0.0046,33.7
1.246,0.0,0.0082,0.0015,-0.0038,33.9
1.247,0.0,0.0067,0.0022,-0.0046,34.0
1.248,0.0,0.0075,0.0022,-0.0053,34.1
1.249,0.0007,0.0097,0.0037,-0.0038,34.3
1.25,-0.0008,0.0105,0.0022,-0.0015,34.4
1.251,-0.0015,0.0082,0.0007,0.0007,34.5
1.252,-0.0015,0.0067,-0.0015,0.003,34.6
1.253,-0.0008,0.0045,-0.0008,0.0022,34.8
1.254,-0.0008,0.003,-0.0008,0.003,34.9
1.255,0.0007,0.003,0.0,0.003,35.1
1.256,0.0007,0.0015,-0.003,0.0015,35.2
1.257,0.0,0.0007,-0.0046,0.0007,35.3
1.258,-0.0015,-0.0015,-0.0008,-0.0008,35.4
1.259,-0.003,0.0022,-0.0008,-0.0015,35.5
1.26,-0.003,0.0067,-0.0008,-0.0015,35.7
1.261,-0.0038,0.0105,0.0007,-0.0015,35.8
1.262,-0.0023,0.0105,0.0007,-0.0015,36.0
1.263,-0.0038,0.0105,0.0,-0.0015,36.1
1.264,-0.003,0.0112,0.0,-0.0023,36.2
1.265,-0.0015,0.0097,0.0007,-0.0015,36.4
1.266,-0.0015,0.0097,-0.0015,-0.003,36.5
1.267,-0.003,0.0075,-0.0008,-0.0053,36.7
1.268,-0.003,0.0082,-0.0015,-0.0046,36.8
1.269,-0.003,0.009,0.0007,-0.0038,36.9
1.27,-0.003,0.0075,0.0022,-0.0023,37.1
1.271,-0.0015,0.0045,0.0015,-0.0008,37.2
1.272,0.0,0.0037,0.003,-0.0015,37.3
1.273,0.0015,0.0022,0.0022,-0.0015,37.5
1.274,0.0007,0.0015,0.0015,-0.0046,37.6
1.275,0.0015,0.0037,0.0015,-0.0068,37.8
1.276,0.0022,0.0052,0.0007,-0.0083,37.9
1.277,0.0007,0.006,0.0,-0.0105,38.1
1.278,0.0022,0.0105,0.0,-0.0075,38.2
1.279,0.0045,0.012,-0.0015,-0.003,38.3
1.28,0.0045,0.0127,-0.0038,0.0007,38.5
1.281,0.0037,0.0142,-0.0046,0.0015,38.6
1.282,0.0022,0.0142,-0.0053,0.0015,38.7
1.283,0.0007,0.0142,-0.0068,0.0007,38.9
1.284,0.0007,0.0142,-0.0046,0.003,39.0
1.285,-0.0008,0.012,-0.003,0.0037,39.2
1.286,-0.0008,0.0097,-0.0046,0.003,39.3
1.287,-0.0015,0.009,-0.0038,0.0037,39.5
1.288,-0.0015,0.0112,-0.0038,0.0067,39.6
1.289,-0.0023,0.0135,-0.003,0.0075,39.7
1.29,-0.0038,0.0127,-0.0015,0.0097,39.9
1.291,-0.0038,0.0127,-0.0015,0.0142,40.0
1.292,-0.0023,0.012,-0.0023,0.015,40.1
1.293,-0.003,0.012,-0.003,0.0187,40.3
1.294,-0.0053,0.012,-0.0038,0.0217,40.4
1.295,-0.006,0.0082,-0.003,0.0247,40.6
1.296,-0.0068,0.0097,-0.0015,0.027,40.7
1.297,-0.006,0.009,-0.0015,0.024,40.9
1.298,-0.0075,0.0067,-0.0008,0.0232,41.0
1.299,-0.0053,0.0045,-0.0015,0.0232,41.1
1.3,-0.003,0.0015,0.0,0.021,41.3
1.301,-0.0023,0.0007,-0.0015,0.018,41.4
1.302,-0.0015,-0.0008,-0.0053,0.015,41.4
1.303,-0.0023,-0.003,-0.0053,0.0127,41.5
1.304,-0.0015,-0.003,-0.0046,0.0105,41.6
1.305,0.0,-0.0053,-0.003,0.0082,41.7
1.306,0.0007,-0.006,-0.0038,0.0052,41.8
1.307,0.0007,-0.0075,-0.003,0.0045,41.9
1.308,-0.0008,-0.0091,-0.0008,0.0015,42.0
1.309,0.0,-0.0053,-0.0015,-0.0023,42.1
1.31,-0.0008,-0.0023,-0.0038,-0.0015,42.2
1.311,-0.0015,-0.003,-0.0015,-0.0023,42.3
1.312,-0.003,-0.006,-0.0008,-0.0015,42.3
1.313,-0.0046,-0.0091,-0.0023,-0.0015,42.4
1.314,-0.0053,-0.0128,-0.0015,-0.0015,42.5
1.315,-0.0046,-0.012,-0.0008,-0.0015,42.6
1.316,-0.0038,-0.0068,-0.0015,-0.0015,42.7
1.317,-0.003,-0.0038,-0.0008,-0.0008,42.8
1.318,-0.003,-0.0038,0.0,-0.003,42.9
1.319,-0.003,-0.0038,0.0,-0.003,43.0
1.32,-0.0008,-0.0046,0.0,-0.0046,43.1
1.321,-0.0008,-0.006,-0.0008,-0.006,43.1
1.322,0.0007,-0.0053,0.0,-0.0015,43.1
1.323,0.0007,-0.0023,-0.0023,-0.0008,43.1
1.324,-0.0015,-0.0023,-0.0015,-0.0015,43.2
1.325,-0.0008,0.0007,-0.0015,-0.0008,43.2
1.326,0.0007,0.0007,-0.0008,-0.003,43.2
1.327,0.0007,0.0045,0.0007,-0.0023,43.3
1.328,-0.0008,0.0067,-0.0008,-0.0023,43.3
1.329,-0.0015,0.0067,-0.0008,-0.0046,43.3
1.33,-0.0015,0.0052,0.0022,-0.0046,43.4
1.331,-0.0046,0.0045,0.0045,-0.0046,43.4
1.332,-0.0046,0.0015,0.0045,-0.003,43.4
1.333,-0.0038,0.0,0.0052,-0.003,43.4
1.334,-0.0015,-0.0008,0.0067,-0.003,43.5
1.335,-0.0015,-0.0046,0.0067,-0.003,43.5
1.336,-0.0015,-0.0053,0.0067,-0.0023,43.5
1.337,-0.0008,-0.0046,0.0067,-0.003,43.6
1.338,-0.0008,-0.006,0.0045,-0.003,43.6
1.339,-0.0008,-0.006,0.0052,-0.003,43.6
1.34,-0.0015,-0.0068,0.0052,-0.0046,43.6
1.341,0.0007,-0.0083,0.0052,-0.0046,43.6
1.342,0.0007,-0.0098,0.0052,-0.006,43.6
1.343,-0.0008,-0.0143,0.0037,-0.0075,43.6
1.344,-0.0015,-0.0165,0.0022,-0.0075,43.7
1.345,-0.0023,-0.0165,0.003,-0.0053,43.7
1.346,-0.003,-0.0181,0.0067,-0.0046,43.7
1.347,-0.0046,-0.0203,0.006,-0.0053,43.7
1.348,-0.003,-0.021,0.006,-0.0075,43.7
1.349,-0.0046,-0.0233,0.003,-0.0091,43.7
1.35,-0.0038,-0.0218,0.0007,-0.0075,43.7
1.351,-0.003,-0.0195,0.0015,-0.0075,43.7
1.352,-0.0023,-0.0203,0.0022,-0.0075,43.7
1.353,-0.0023,-0.0218,0.003,-0.0083,43.7
1.354,-0.0015,-0.0203,0.0022,-0.0068,43.7
1.355,-0.0008,-0.0181,0.003,-0.0046,43.7
1.356,-0.0008,-0.0143,0.003,-0.0053,43.7
1.357,0.0,-0.0075,0.0052,-0.006,43.8
1.358,-0.0008,-0.003,0.0052,-0.0068,43.8
1.359,0.0007,0.0007,0.0045,-0.0046,43.8
1.36,-0.0008,0.003,0.0015,-0.0053,43.8
1.361,-0.0008,0.0022,-0.0008,-0.0068,43.8
1.362,-0.0008,0.0045,0.0007,-0.006,43.8
1.363,0.0,0.0082,-0.0008,-0.006,43.8
1.364,0.0015,0.0097,-0.0008,-0.0068,43.8
1.365,-0.0008,0.0105,0.0,-0.006,43.8
1.366,0.0,0.0112,0.0015,-0.006,43.8
1.367,-0.0015,0.0105,-0.0008,-0.0083,43.7
1.368,-0.0008,0.0105,-0.0015,-0.0068,43.7
1.369,-0.0008,0.0105,-0.0015,-0.0083,43.7
1.37,-0.0008,0.0112,-0.003,-0.0075,43.7
1.371,0.0007,0.0127,-0.0015,-0.0068,43.7
1.372,0.0,0.012,-0.003,-0.0068,43.7
1.373,-0.0008,0.0127,-0.003,-0.0075,43.7
1.374,-0.0015,0.0127,-0.0046,-0.0091,43.6
1.375,-0.003,0.0127,-0.0053,-0.0075,43.6
1.376,-0.0015,0.012,-0.0038,-0.0083,43.6
1.377,-0.0015,0.009,-0.003,-0.0075,43.6
1.378,-0.0015,0.0082,-0.003,-0.0075,43.6
1.379,-0.0008,0.0052,-0.0046,-0.006,43.6
1.38,-0.0015,0.003,-0.003,-0.0053,43.6
1.381,-0.0023,0.0045,-0.0015,-0.0053,43.6
1.382,-0.0015,0.0112,-0.0023,-0.006,43.5
1.383,-0.0008,0.0135,-0.0046,-0.0068,43.4
1.384,0.0,0.0142,-0.0046,-0.0083,43.3
1.385,0.0007,0.0165,-0.003,-0.0091,43.3
1.386,0.0007,0.0157,-0.0015,-0.0083,43.2
1.387,0.0,0.0127,-0.0008,-0.006,43.1
1.388,-0.0008,0.012,-0.0015,-0.0053,43.1
1.389,-0.0046,0.0105,-0.0015,-0.0046,43.0
1.39,-0.0053,0.0105,-0.0008,-0.003,43.0
1.391,-0.0046,0.0105,-0.0015,-0.0046,42.9
1.392,-0.0046,0.0067,-0.0015,-0.003,42.8
1.393,-0.0053,0.003,0.0007,-0.0023,42.8
1.394,-0.0038,0.0007,0.0007,-0.003,42.7
1.395,-0.003,-0.0023,-0.0008,-0.0023,42.7
1.396,-0.0053,-0.0046,0.0007,-0.0023,42.6
1.397,-0.0038,-0.006,0.003,-0.0008,42.5
1.398,-0.0015,-0.0091,0.0022,0.0007,42.5
1.399,-0.0023,-0.0105,0.003,0.0007,42.4
1.4,-0.0023,-0.012,0.0037,0.0022,42.3
1.401,-0.0008,-0.015,0.003,0.0007,42.3
1.402,-0.0008,-0.0158,0.0015,0.0007,42.1
1.403,-0.0008,-0.015,0.0007,0.0007,42.0
1.404,0.0007,-0.0128,0.0007,-0.0008,41.9
1.405,0.0007,-0.0143,0.0007,-0.0015,41.8
1.406,0.0,-0.0143,0.003,-0.0015,41.7
1.407,-0.0008,-0.0135,0.0015,0.0007,41.6
1.408,-0.0008,-0.0128,0.0015,-0.0008,41.4
1.409,0.0007,-0.0128,0.0,0.0007,41.3
1.41,0.0007,-0.015,0.0,0.0007,41.2
1.411,-0.0015,-0.0165,0.0007,0.0007,41.1
1.412,-0.003,-0.0181,0.0,0.0007,41.0
1.413,-0.0038,-0.0158,0.0007,0.003,40.9
1.414,-0.003,-0.015,0.0015,0.0037,40.8
1.415,-0.0008,-0.0158,0.003,0.003,40.6
1.416,-0.0008,-0.0128,0.003,0.0045,40.5
1.417,-0.0015,-0.0083,0.0015,0.0,40.5
1.418,-0.0023,-0.003,0.0,-0.0038,40.3
1.419,-0.0023,-0.0008,-0.0008,-0.0046,40.2
1.42,-0.003,0.0015,0.0007,-0.0053,40.0
1.421,-0.003,0.0037,0.0007,-0.0068,40.0
1.422,-0.0023,0.0045,0.0015,-0.0053,39.9
1.423,-0.0015,0.0082,0.0,-0.0046,39.8
1.424,-0.0015,0.009,-0.0008,-0.0046,39.6
1.425,-0.0015,0.0052,-0.0008,-0.0023,39.6
1.426,-0.0015,0.0037,-0.0015,-0.0015,39.4
1.427,-0.0015,0.0045,-0.0015,-0.003,39.3
1.428,-0.0008,0.0045,-0.0015,-0.003,39.2
1.429,-0.0015,0.006,-0.0008,-0.0015,39.1
1.43,-0.0015,0.006,-0.0023,-0.0008,39.0
1.431,-0.003,0.0052,-0.0046,0.0,38.9
1.432,-0.003,0.0037,-0.0038,0.0007,38.8
1.433,-0.003,0.0015,-0.0053,0.0015,38.6
1.434,-0.003,-0.0008,-0.0068,0.0015,38.6
1.435,-0.0008,-0.0008,-0.0053,0.0,38.4
1.436,-0.0008,0.0015,-0.003,0.0007,38.3
1.437,-0.0015,0.0045,0.0015,0.0,38.2
1.438,-0.0015,0.0,0.0022,0.0007,38.1
1.439,-0.0023,-0.0173,0.0045,0.0015,38.0
1.44,-0.0038,-0.021,0.0045,0.0037,37.8
1.441,-0.003,-0.003,0.0045,0.0045,37.8
1.442,-0.0015,0.0015,0.003,0.0052,37.6
1.443,-0.003,-0.0015,0.0007,0.0052,37.4
1.444,-0.0023,-0.0023,0.0,0.0052,37.3
1.445,-0.0023,-0.0053,0.0,0.003,37.2
1.446,-0.003,-0.0091,0.0,0.0015,37.0
1.447,-0.0015,-0.0113,-0.0015,0.003,36.9
1.448,-0.0023,-0.012,-0.0023,0.0007,36.7
1.449,-0.0015,-0.0128,-0.0023,-0.0015,36.6
1.45,-0.003,-0.0091,-0.0023,0.003,36.4
1.451,-0.003,-0.0023,-0.0008,0.0082,36.3
1.452,-0.0015,0.0037,0.0007,0.0127,36.2
1.453,-0.003,0.0157,0.0,0.0195,36.0
1.454,-0.0015,0.027,-0.0008,0.0225,35.9
1.455,-0.0015,0.0285,-0.0008,0.0157,35.7
1.456,-0.0015,0.0367,-0.0008,0.0105,35.6
1.457,-0.0015,0.0307,-0.0015,0.0112,35.5
1.458,-0.0015,-0.0008,-0.0008,0.0045,35.3
1.459,-0.0015,-0.0143,0.0007,0.003,35.1
1.46,-0.003,-0.0165,0.0007,0.0015,35.0
1.461,-0.0023,-0.0181,-0.0015,0.0,34.8
1.462,-0.0046,-0.021,-0.0015,-0.0015,34.6
1.463,-0.0053,-0.033,0.0,-0.0053,34.4
1.464,-0.003,-0.0405,-0.0008,-0.0038,34.2
1.465,-0.003,-0.0458,-0.0008,-0.0008,34.1
1.466,-0.0015,-0.0263,-0.0023,0.003,33.9
1.467,-0.0008,0.018,-0.0015,0.003,33.7
1.468,-0.0008,0.0052,0.0007,0.0015,33.5
1.469,0.0,-0.0338,0.0007,0.0022,33.3
1.47,0.0007,0.0082,0.0015,0.0052,33.1
1.471,0.0022,0.0802,0.0007,0.012,32.9
1.472,0.0015,0.0922,0.0007,0.0195,32.8
1.473,0.0007,0.075,-0.0015,0.018,32.5
1.474,-0.0008,0.0825,-0.0008,0.015,32.4
1.475,-0.0015,0.018,-0.0008,0.0052,32.2
1.476,0.0007,-0.03,-0.0008,-0.0023,32.0
1.477,0.0,-0.0091,-0.0023,-0.0015,31.8
1.478,-0.0015,-0.0128,0.0,-0.0053,31.6
1.479,-0.0038,-0.003,0.0007,-0.0075,31.4
1.48,-0.0046,-0.0158,0.0007,-0.0053,31.2
1.481,-0.0046,-0.0181,-0.0008,0.0007,31.0
1.482,-0.0053,-0.0195,-0.0008,-0.0015,30.7
1.483,-0.0046,-0.0256,0.0015,-0.0105,30.5
1.484,-0.0046,-0.0248,0.003,-0.0143,30.2
1.485,-0.0053,-0.033,0.0037,-0.0181,30.0
1.486,-0.0068,-0.024,0.0015,-0.0165,29.7
1.487,-0.0053,-0.0278,0.0015,-0.0128,29.4
1.488,-0.003,-0.0188,0.0015,-0.0053,29.2
1.489,-0.0015,0.0067,0.0015,0.012,28.9
1.49,-0.0008,0.0202,0.0,0.0165,28.7
1.491,-0.0015,0.0015,-0.0038,0.0142,28.4
1.492,-0.0008,-0.0046,-0.003,0.015,28.2
1.493,0.0015,-0.003,-0.0023,0.0165,27.9
1.494,0.003,-0.033,-0.0008,0.009,27.7
1.495,0.0022,-0.0638,0.0007,-0.012,27.4
1.496,-0.0015,-0.0555,-0.0008,-0.0128,27.2
1.497,-0.0038,0.0037,-0.0015,-0.0015,26.9
1.498,-0.003,0.0517,-0.0008,-0.0015,26.6
1.499,-0.003,0.0427,-0.0015,-0.0046,26.4
1.5,0.0,0.0142,-0.0023,-0.0023,26.1
1.501,0.0037,0.0285,-0.0015,0.003,25.9
1.502,0.0037,0.0225,-0.0023,0.003,25.6
1.503,0.0052,0.0,-0.003,0.0,25.3
1.504,0.0067,-0.021,-0.0015,-0.0038,25.1
1.505,0.0037,-0.0593,0.0,-0.0068,24.7
1.506,0.0007,-0.0691,0.0015,-0.0105,24.5
1.507,-0.0038,-0.0615,0.0007,-0.0128,24.2
1.508,-0.0091,-0.0473,-0.0008,-0.0113,23.9
1.509,-0.0113,-0.0495,-0.0008,-0.0195,23.7
1.51,-0.0098,-0.0645,-0.0046,-0.0233,23.4
1.511,-0.0105,-0.042,-0.0046,-0.0158,23.1
1.512,-0.0098,0.0442,-0.003,-0.0015,22.9
1.513,-0.0091,0.165,-0.0008,0.0157,22.6
1.514,-0.012,0.1762,0.0007,0.0187,22.3
1.515,-0.0105,0.0975,-0.0046,0.0135,22.0
1.516,-0.0046,0.0622,-0.0053,0.009,21.7
1.517,0.0,0.048,-0.003,0.0052,21.5
1.518,0.0022,0.0967,0.0,0.009,21.2
1.519,0.0045,0.0862,0.0037,0.009,20.9
1.52,0.0052,-0.0023,0.0037,-0.0008,20.6
1.521,0.003,-0.0181,0.0007,-0.0128,20.4
1.522,0.0022,-0.0195,0.0,-0.012,20.1
1.523,0.0,-0.0008,-0.0015,-0.0083,19.8
1.524,-0.0046,0.0082,-0.003,-0.0128,19.6
1.525,-0.0068,0.0465,0.0007,-0.0188,19.3
1.526,-0.0091,0.0247,0.0007,-0.0293,19.1
1.527,-0.0083,-0.078,0.0015,-0.0458,18.8
1.528,-0.0038,-0.1215,0.0037,-0.0533,18.5
1.529,0.0007,-0.1515,0.0037,-0.054,18.3
1.53,0.0015,-0.1688,0.0022,-0.0563,18.0
1.531,0.0,-0.192,-0.0008,-0.0518,17.8
1.532,-0.0015,-0.195,-0.0015,-0.039,17.5
1.533,-0.003,-0.15,-0.0008,-0.0165,17.2
1.534,-0.0015,-0.003,0.0045,0.0112,17.0
1.535,-0.0008,0.243,0.0067,0.0487,16.7
1.536,0.0015,0.309,0.0045,0.078,16.4
1.537,-0.0015,0.2055,0.0037,0.057,16.2
1.538,-0.003,0.1072,0.0037,0.0375,15.9
1.539,-0.0038,0.0915,0.006,0.0472,15.7
1.54,-0.0105,0.1072,0.0067,0.0277,15.3
1.541,-0.0143,0.03,0.0067,0.0075,15.2
1.542,-0.006,0.0577,0.0082,0.009,14.9
1.543,0.0045,0.0892,0.006,0.0255,14.7
1.544,0.009,0.0442,0.003,0.033,14.4
1.545,0.0097,0.0225,-0.0008,0.0045,14.2
1.546,0.0075,-0.042,-0.0023,0.0015,14.0
1.547,0.0045,-0.012,-0.003,0.0165,13.8
1.548,0.0052,-0.0143,-0.0008,0.027,13.5
1.549,0.009,-0.0488,0.003,0.0202,13.3
1.55,0.0127,-0.0668,0.0037,-0.0195,13.0
1.551,0.0082,-0.0975,0.003,-0.0308,12.8
1.552,0.0007,-0.0788,-0.0008,-0.0233,12.6
1.553,-0.003,-0.1058,-0.0008,-0.0233,12.4
1.554,-0.0105,-0.1013,0.0015,-0.015,12.1
1.555,-0.0098,-0.0878,-0.0008,-0.012,11.9
1.556,-0.0053,-0.0645,-0.003,-0.0068,11.7
1.557,-0.0046,-0.0038,-0.0015,-0.0053,11.4
1.558,-0.0046,0.0427,0.0015,-0.0015,11.2
1.559,-0.0046,0.0292,0.0015,-0.0015,11.0
1.56,-0.0046,0.0345,-0.0008,-0.0083,10.7
1.561,-0.0068,0.0877,-0.0008,-0.0105,10.6
1.562,-0.0053,-0.0105,-0.0008,-0.0113,10.4
1.563,-0.0053,-0.0593,0.0015,-0.012,10.2
1.564,-0.006,-0.0593,0.0007,-0.0135,10.0
1.565,-0.0091,-0.0765,0.0,-0.0091,9.8
1.566,-0.0075,-0.0413,0.0015,-0.0053,9.6
1.567,-0.0053,-0.0495,0.0015,0.0,9.4
1.568,-0.006,-0.0165,0.0007,0.0082,9.3
1.569,-0.0053,0.0165,-0.0038,0.0112,9.1
1.57,-0.0083,0.0255,-0.0046,0.0052,8.9
1.571,-0.0113,-0.0548,-0.0046,-0.0015,8.7
1.572,-0.012,-0.1125,0.003,-0.0008,8.5
1.573,-0.0128,-0.0735,0.0067,-0.0015,8.3
1.574,-0.0135,-0.066,-0.0008,-0.0068,8.1
1.575,-0.0113,-0.0525,-0.0046,-0.0038,8.0
1.576,-0.0083,-0.054,-0.0091,-0.003,7.8
1.577,-0.0083,-0.0218,-0.0068,-0.0038,7.6
1.578,-0.006,-0.0008,-0.006,0.0007,7.4
1.579,-0.0046,0.0052,-0.0068,0.0082,7.2
1.58,0.0015,0.033,-0.0068,0.0232,7.0
1.581,0.0037,0.0645,-0.0068,0.033,6.9
1.582,0.0015,0.114,-0.0046,0.0315,6.7
1.583,0.0037,0.1155,-0.006,0.0202,6.6
1.584,0.0052,0.123,-0.0046,0.0172,6.5
1.585,0.003,0.1117,-0.003,0.0232,6.3
1.586,0.0015,0.0952,-0.003,0.0127,6.2
1.587,0.0037,0.0832,-0.0023,0.0015,6.0
1.588,-0.003,0.0217,-0.0008,-0.0023,5.9
1.589,-0.0128,0.0142,0.0015,-0.0113,5.8
1.59,-0.0173,0.0067,0.0015,-0.0091,5.6
1.591,-0.012,-0.0083,0.0045,-0.0046,5.5
1.592,-0.003,-0.0068,0.0082,0.0015,5.3
1.593,-0.0008,-0.0278,0.0112,0.0067,5.2
1.594,0.003,-0.012,0.0127,0.0075,5.1
1.595,0.0015,0.0,0.0105,0.0067,4.9
1.596,-0.003,-0.0143,0.0075,-0.0038,4.8
1.597,-0.012,-0.0465,0.0045,-0.0091,4.6
1.598,-0.0143,-0.0428,0.003,-0.0135,4.5
1.599,-0.0083,-0.0405,-0.0015,-0.0278,4.4
1.6,-0.0098,-0.0113,-0.0023,-0.0361,4.2
1.601,-0.006,0.0555,-0.003,-0.0368,4.1
1.602,-0.0046,0.0052,-0.0038,-0.0375,4.1
1.603,-0.0038,0.018,-0.0008,-0.0278,4.0
1.604,0.0022,0.1215,0.0052,-0.0128,3.9
1.605,0.006,0.1912,0.0067,0.0037,3.9
1.606,0.0045,0.1942,0.0037,0.0195,3.8
1.607,-0.0015,0.1335,0.0022,0.03,3.7
1.608,-0.0008,0.1185,0.0,0.0652,3.6
1.609,0.0045,0.0915,0.0045,0.0817,3.6
1.61,0.0142,0.0412,0.006,0.0427,3.5
1.611,0.0157,-0.0346,0.0007,0.012,3.4
1.612,0.0142,-0.0765,-0.0023,-0.003,3.3
1.613,0.015,-0.0953,-0.003,-0.0195,3.3
1.614,0.0105,-0.1163,-0.0015,-0.0233,3.2
1.615,0.0127,-0.0856,-0.0046,-0.0091,3.1
1.616,0.0195,-0.0721,-0.0068,-0.003,3.1
1.617,0.0165,-0.0608,-0.0053,-0.0015,3.0
1.618,0.0037,-0.0721,-0.0068,0.0067,2.9
1.619,-0.0068,-0.0765,-0.0068,0.0045,2.8
1.62,-0.006,-0.0721,-0.0068,-0.0091,2.7
1.621,-0.0053,-0.0668,-0.0023,-0.0091,2.7
1.622,-0.0046,-0.045,-0.003,-0.006,2.6
1.623,-0.0015,-0.0585,-0.0038,-0.0113,2.6
1.624,0.0045,-0.0706,-0.0015,-0.0225,2.6
1.625,0.0052,-0.0706,0.0007,-0.042,2.6
1.626,0.0007,-0.1028,-0.0015,-0.0608,2.5
1.627,-0.003,-0.114,-0.003,-0.0593,2.5
1.628,-0.0105,-0.0653,0.0007,-0.0511,2.5
1.629,-0.0105,-0.0278,0.006,-0.057,2.4
1.63,-0.0053,-0.0443,0.0067,-0.0668,2.4
1.631,-0.0046,-0.0668,0.0045,-0.0518,2.3
1.632,-0.0046,-0.042,0.0052,-0.0046,2.3
1.633,-0.0038,-0.0706,0.0165,0.0457,2.3
1.634,-0.0015,-0.0511,0.024,0.0712,2.2
1.635,0.0007,0.054,0.0142,0.0585,2.2
1.636,0.006,0.0382,0.003,0.018,2.2
1.637,0.0067,-0.0105,-0.0053,-0.0046,2.1
1.638,0.0082,-0.0585,-0.0105,0.009,2.1
1.639,0.0075,-0.063,-0.012,0.0255,2.1
1.64,0.0022,0.1005,-0.0083,0.024,2.0
1.641,0.0067,0.3007,-0.0008,0.0315,2.0
1.642,0.0067,0.2332,-0.0068,0.0135,2.0
1.643,0.0007,-0.0361,-0.012,-0.012,2.0
1.644,0.003,-0.0383,-0.0091,-0.0098,2.0
1.645,0.0,0.0315,-0.0038,-0.024,2.1
1.646,-0.0158,0.0817,-0.0008,-0.0105,2.1
1.647,-0.0248,0.2527,-0.0008,0.0187,2.1
1.648,-0.0225,0.2955,-0.0023,0.03,2.1
1.649,-0.0083,0.087,-0.0083,0.0345,2.1
1.65,0.0187,-0.0436,-0.0091,0.0067,2.2
1.651,0.0405,-0.027,-0.0091,-0.0158,2.2
1.652,0.0382,-0.0458,-0.0068,0.0075,2.2
1.653,0.0255,0.0037,-0.0008,0.0195,2.2
1.654,0.0112,-0.0608,-0.0008,0.009,2.2
1.655,0.009,-0.0405,0.0022,0.003,2.2
1.656,0.0097,-0.042,0.0015,-0.0128,2.2
1.657,-0.0046,-0.1253,-0.003,-0.0105,2.2
1.658,-0.0218,-0.0706,-0.0046,0.003,2.2
1.659,-0.0405,-0.093,-0.0015,0.0165,2.3
1.66,-0.0368,-0.0578,0.006,0.0082,2.3
1.661,-0.0218,-0.0765,0.0105,-0.0083,2.4
1.662,-0.0218,-0.1238,0.012,-0.0098,2.5
1.663,-0.0181,-0.078,0.009,-0.0225,2.6
1.664,-0.012,-0.0458,0.0082,-0.0203,2.6
1.665,0.0015,-0.0458,0.0045,-0.0068,2.7
1.666,0.0157,-0.0465,-0.0023,0.0232,2.8
1.667,0.0225,-0.0203,-0.0075,0.0457,2.9
1.668,0.0255,0.0277,-0.0053,0.0292,3.0
1.669,0.0195,0.144,0.0045,0.018,3.1
1.67,0.0045,0.168,0.0127,-0.0075,3.1
1.671,-0.0158,0.0382,0.0105,-0.0593,3.2
1.672,-0.027,-0.0863,0.0037,-0.1013,3.3
1.673,-0.0023,-0.1155,-0.003,-0.1103,3.4
1.674,0.0675,-0.1238,-0.0046,-0.0818,3.5
1.675,0.093,-0.0998,0.0052,-0.03,3.6
1.676,0.0352,-0.0503,0.0082,0.012,3.6
1.677,0.0007,-0.0398,0.006,0.0262,3.7
1.678,-0.0195,-0.0203,0.0015,0.027,3.8
1.679,-0.048,0.0555,-0.0046,0.054,3.9
1.68,-0.0608,0.222,-0.0053,0.099,4.0
1.681,-0.0713,0.192,-0.0068,0.0697,4.0
1.682,-0.0608,0.0315,-0.0083,-0.033,4.1
1.683,-0.0615,-0.0338,-0.012,-0.0878,4.1
1.684,-0.0668,-0.0473,-0.0105,-0.0758,4.2
1.685,-0.0458,0.0922,-0.0083,-0.0315,4.3
1.686,-0.0203,0.0877,-0.0008,0.0187,4.3
1.687,0.003,-0.039,0.0022,0.0315,4.4
1.688,0.021,-0.0233,-0.0053,0.0277,4.4
1.689,0.0352,0.084,-0.012,0.0105,4.5
1.69,0.0367,0.1357,-0.0195,-0.0083,4.5
1.691,0.0247,-0.0091,-0.0165,-0.0218,4.6
1.692,0.0142,-0.0518,-0.0128,-0.057,4.7
1.693,0.0022,-0.0158,-0.0113,-0.0533,4.7
1.694,-0.0181,-0.0181,0.0052,-0.0068,4.8
1.695,-0.0195,0.0217,0.027,0.0427,4.9
1.696,-0.0046,0.0787,0.027,0.072,4.9
1.697,0.0172,0.0622,0.012,0.072,4.9
1.698,0.0435,-0.0743,-0.0098,0.0705,5.0
1.699,0.039,-0.1178,-0.0256,0.048,5.1
1.7,0.024,-0.1838,-0.03,0.0577,5.1
1.701,0.0135,-0.1935,-0.0256,0.0742,5.1
1.702,0.0022,-0.1411,-0.0143,0.0465,5.1
1.703,0.0097,-0.105,-0.0083,0.0412,5.1
1.704,0.0202,0.0007,0.0015,0.0517,5.1
1.705,0.0195,0.0712,0.009,0.084,5.1
1.706,0.0105,0.1537,0.03,0.0997,5.1
1.707,-0.0038,0.2302,0.0367,0.0637,5.1
1.708,-0.0158,0.1252,0.0165,0.0015,5.1
1.709,-0.0083,-0.0143,0.0217,-0.0578,5.1
1.71,0.0067,-0.027,0.0375,-0.093,5.1
1.711,0.0165,-0.0593,0.0337,-0.084,5.1
1.712,-0.0158,-0.042,0.0195,-0.066,5.1
1.713,-0.0728,-0.0225,0.0217,-0.0691,5.1
1.714,-0.084,-0.0181,0.0442,-0.0668,5.1
1.715,-0.057,-0.0495,0.0465,-0.0721,5.1
1.716,-0.0098,-0.0721,0.0165,-0.0721,5.1
1.717,0.027,-0.039,-0.0143,-0.0818,5.1
1.718,0.054,-0.0046,-0.0278,-0.0848,5.1
1.719,0.093,0.096,-0.0353,-0.0713,5.1
1.72,0.0937,0.0495,-0.0488,-0.0458,5.1
1.721,0.1042,-0.0495,-0.0533,-0.0165,5.0
1.722,0.1747,-0.0458,-0.0533,-0.0046,4.9
1.723,0.1725,-0.0353,-0.0436,0.0037,4.8
1.724,0.0465,0.003,-0.027,0.0052,4.7
1.725,-0.0615,0.0202,-0.0323,0.0142,4.6
1.726,-0.1253,0.0232,-0.0308,0.0322,4.5
1.727,-0.1441,0.0195,-0.0091,0.0435,4.4
1.728,-0.1193,-0.0083,0.0075,0.0292,4.3
1.729,-0.099,0.015,0.0112,-0.003,4.1
1.73,-0.0893,0.0277,0.012,-0.0165,4.0
1.731,-0.1013,0.0022,0.0157,-0.027,3.9
1.732,-0.0871,-0.0143,0.0255,-0.0315,3.8
1.733,-0.057,-0.0398,0.0337,-0.0315,3.7
1.734,-0.0405,-0.0773,0.0315,-0.0458,3.6
1.735,-0.0128,-0.1028,0.0262,-0.0315,3.5
1.736,0.0067,-0.1133,0.0292,-0.0165,3.3
1.737,0.0165,-0.1441,0.0307,-0.0158,3.2
1.738,0.0142,-0.1418,0.039,-0.0053,3.1
1.739,0.0015,-0.1028,0.0472,-0.0038,3.0
1.74,-0.0008,0.0187,0.0442,0.0405,2.8
1.741,0.0112,0.2272,0.0382,0.1095,2.8
1.742,0.024,0.3127,0.0322,0.1432,2.8
1.743,0.024,0.2347,0.0292,0.132,2.8
1.744,0.027,0.21,0.03,0.1237,2.9
1.745,0.0165,0.2602,0.0277,0.1492,2.9
1.746,-0.0015,0.2355,0.0135,0.105,2.9
1.747,-0.0128,0.1087,-0.0046,0.0345,2.9
1.748,-0.0083,0.0345,-0.006,0.018,2.9
1.749,0.0315,0.0217,0.0037,-0.0053,2.9
1.75,0.0442,-0.0105,0.003,-0.0203,2.9
1.751,0.0082,-0.0285,0.0052,-0.0233,2.9
1.752,-0.0165,-0.054,0.0127,-0.027,2.9
1.753,-0.0323,-0.0555,0.0127,-0.0233,2.9
1.754,-0.0285,-0.075,-0.0008,-0.024,2.9
1.755,-0.0053,-0.0863,-0.0083,-0.0181,2.9
1.756,0.009,-0.0953,-0.0091,-0.0256,2.9
1.757,0.018,-0.1118,-0.0203,-0.039,3.0
1.758,0.0067,-0.0788,-0.0113,-0.0368,3.0
1.759,0.003,-0.0593,0.015,-0.0315,3.0
1.76,0.0007,-0.0428,0.0217,-0.0233,3.0
1.761,-0.0128,-0.0203,0.009,-0.0068,3.1
1.762,-0.0091,0.0165,-0.0015,0.0105,3.4
1.763,-0.0008,0.0585,-0.0091,0.0157,3.6
1.764,0.015,0.0555,-0.0046,0.003,3.8
1.765,0.0255,-0.0225,0.012,-0.0105,4.0
1.766,-0.0008,-0.093,0.0135,-0.0308,4.2
1.767,-0.003,-0.0308,0.0067,-0.0458,4.4
1.768,0.033,0.0667,-0.003,-0.0428,4.6
1.769,0.0202,0.069,-0.0285,-0.03,4.8
1.77,-0.0046,0.0607,-0.0495,-0.0135,5.0
1.771,0.012,0.0502,-0.0548,-0.0113,5.2
1.772,0.0135,-0.0413,-0.0488,0.0052,5.3
1.773,-0.0158,-0.0285,-0.0338,0.0247,5.6
1.774,-0.0615,-0.0135,-0.0293,0.033,5.8
1.775,-0.0878,-0.0743,-0.0256,0.0465,6.0
1.776,-0.066,-0.0593,-0.0165,0.0292,6.2
1.777,-0.0195,-0.0856,-0.012,0.0052,6.4
1.778,0.0022,-0.108,-0.0038,-0.0143,6.6
1.779,0.0007,-0.1373,-0.0068,-0.0323,6.8
1.78,0.009,-0.1635,-0.0053,-0.0248,7.0
1.781,0.0255,-0.1741,-0.0008,-0.0158,7.1
1.782,0.0262,-0.1785,-0.0091,-0.0053,7.2
1.783,0.0082,-0.1118,-0.0158,0.0,7.4
1.784,0.003,-0.0113,-0.0218,-0.0008,7.6
1.785,0.0142,0.1305,-0.0278,-0.0046,7.7
1.786,0.0277,0.2085,-0.027,0.006,7.8
1.787,0.0315,0.243,-0.0188,0.0202,8.0
1.788,0.0157,0.2002,-0.0203,0.0262,8.1
1.789,0.0105,0.1312,-0.024,0.048,8.3
1.79,0.0465,0.207,-0.015,0.0465,8.5
1.791,0.0705,0.24,0.0007,0.0345,8.6
1.792,0.051,0.1657,0.0112,0.009,8.7
1.793,0.0247,-0.0068,-0.0008,-0.0323,8.9
1.794,0.0165,-0.0788,-0.0091,-0.0361,9.0
1.795,0.057,-0.0353,-0.0113,-0.0361,9.2
1.796,0.1042,-0.057,-0.0181,-0.0346,9.3
1.797,0.0915,-0.0383,-0.0188,-0.0323,9.4
1.798,0.042,-0.0436,-0.0181,-0.0368,9.6
1.799,-0.021,-0.033,-0.024,-0.03,9.8
1.8,-0.105,-0.027,-0.024,-0.0353,9.9
1.801,-0.1635,-0.0533,-0.0098,-0.039,9.9
1.802,-0.1658,-0.0503,0.003,-0.0353,10.0
1.803,-0.1441,-0.0623,-0.0008,-0.03,10.0
1.804,-0.1328,-0.0503,-0.0158,-0.0181,10.1
1.805,-0.093,-0.0293,-0.0256,-0.015,10.1
1.806,-0.0203,-0.024,-0.024,-0.021,10.2
1.807,-0.0068,-0.0203,-0.0188,-0.027,10.2
1.808,-0.0195,-0.003,-0.024,-0.0346,10.3
1.809,-0.0158,0.0157,-0.03,-0.0383,10.3
1.81,-0.0068,0.0255,-0.0368,-0.027,10.3
1.811,0.0195,-0.024,-0.039,-0.0165,10.3
1.812,0.0645,-0.063,-0.0346,-0.0105,10.4
1.813,0.1102,-0.0555,-0.0188,-0.0105,10.4
1.814,0.1372,-0.0675,0.0195,-0.0158,10.5
1.815,0.1282,-0.0278,0.0487,-0.0143,10.5
1.816,0.084,0.0802,0.0532,-0.0158,10.6
1.817,0.0367,0.18,0.0375,-0.0195,10.6
1.818,0.009,0.1297,0.0195,-0.0323,10.7
1.819,-0.0113,0.0172,0.018,-0.039,10.7
1.82,-0.0413,-0.0083,0.0202,-0.0113,10.7
1.821,-0.075,0.0165,0.012,0.0135,10.7
1.822,-0.0495,0.024,-0.0008,0.015,10.7
1.823,-0.0165,-0.0323,0.003,0.0075,10.6
1.824,-0.0173,-0.0443,0.006,0.0037,10.5
1.825,-0.0015,-0.0413,0.006,0.0045,10.4
1.826,0.0022,-0.057,0.0037,0.0067,10.3
1.827,-0.003,-0.0503,0.0082,0.0112,10.3
1.828,-0.0008,-0.054,0.0142,0.012,10.2
1.829,0.0075,-0.048,0.0172,0.0105,10.1
1.83,0.0217,-0.048,0.0202,0.0075,10.0
1.831,0.018,-0.0436,0.0172,0.0022,9.9
1.832,0.0112,-0.0323,0.0232,0.0015,9.9
1.833,0.0037,-0.0181,0.027,0.009,9.8
1.834,0.0022,0.0007,0.021,0.0172,9.7
1.835,0.0007,-0.0091,0.0142,0.0157,9.6
1.836,-0.0075,-0.0195,0.0127,0.0142,9.5
1.837,-0.0181,-0.0143,0.009,0.021,9.4
1.838,-0.033,-0.0068,0.006,0.0285,9.4
1.839,-0.0413,-0.0053,0.0082,0.024,9.3
1.84,-0.0443,-0.003,0.0067,0.0157,9.2
1.841,-0.0323,0.0015,0.0075,0.0127,9.2
1.842,-0.0195,0.0015,0.0007,0.0157,9.1
1.843,-0.0105,-0.0008,0.0,0.018,9.0
1.844,0.0,0.0015,0.009,0.0225,9.0
1.845,0.0007,0.0037,0.0112,0.0202,8.9
1.846,-0.0008,-0.0023,0.0082,0.018,8.9
1.847,0.0007,-0.0098,0.0105,0.0165,8.8
1.848,0.006,-0.003,0.015,0.0127,8.7
1.849,0.0052,0.0105,0.015,0.0165,8.7
1.85,0.0015,0.0052,0.0165,0.0127,8.6
1.851,-0.0038,-0.0113,0.0135,0.0037,8.5
1.852,-0.0083,-0.0091,0.012,0.0007,8.5
1.853,-0.0053,-0.0053,0.012,-0.0008,8.4
1.854,-0.0083,-0.0015,0.009,0.0,8.4
1.855,-0.0053,0.0045,0.0097,0.0105,8.3
1.856,0.0007,0.0082,0.009,0.033,8.2
1.857,-0.0008,0.0112,0.0105,0.048,8.2
1.858,0.0037,0.0082,0.0135,0.033,8.1
1.859,0.003,-0.0023,0.012,0.0052,8.1
1.86,-0.003,-0.0113,0.006,0.0015,8.0
1.861,-0.0068,0.0007,0.0052,0.0037,8.0
1.862,-0.0083,0.0067,0.006,0.0045,8.0
1.863,-0.0053,0.012,0.0022,0.0082,8.0
1.864,-0.0046,0.054,-0.0015,0.0127,8.0
1.865,-0.0015,0.0907,-0.0038,0.0315,8.0
1.866,-0.0008,0.0697,-0.0068,0.0345,8.0
1.867,-0.0068,0.03,-0.0083,0.0195,8.1
1.868,-0.0075,0.0127,-0.0083,0.0007,8.1
1.869,-0.0068,0.0015,-0.0068,-0.0143,8.1
1.87,-0.0046,-0.0015,-0.0053,-0.027,8.1
1.871,-0.0053,-0.0038,-0.0038,-0.0353,8.1
1.872,-0.0075,-0.006,-0.0015,-0.0181,8.1
1.873,-0.0068,-0.0068,0.0,-0.003,8.1
1.874,-0.0015,-0.0218,0.0,-0.0105,8.1
1.875,0.003,-0.0398,0.0015,-0.0165,8.1
1.876,0.0007,-0.045,-0.0015,-0.015,8.1
1.877,0.0,-0.0383,-0.0075,-0.012,8.1
1.878,0.0082,-0.0263,-0.0135,-0.0158,8.2
1.879,0.0142,0.0052,-0.0143,-0.0143,8.2
1.88,0.0105,0.0727,-0.012,-0.0068,8.2
1.881,0.0075,0.114,-0.012,0.0,8.3
1.882,0.0045,0.078,-0.0098,-0.0015,8.4
1.883,0.0007,0.0315,-0.0068,-0.0083,8.5
1.884,0.0105,0.0007,-0.0046,-0.012,8.6
1.885,0.0142,-0.0165,-0.0046,-0.0128,8.8
1.886,0.0052,-0.0203,-0.0083,-0.0143,8.9
1.887,-0.0075,-0.0195,-0.0105,-0.0135,9.0
1.888,-0.0256,-0.0128,-0.0068,-0.0128,9.1
1.889,-0.0428,-0.012,-0.0046,-0.012,9.2
1.89,-0.048,-0.006,0.0,-0.0083,9.4
1.891,-0.0263,-0.0053,0.0,-0.003,9.4
1.892,-0.0015,-0.0046,-0.0015,-0.0023,9.6
1.893,0.0045,-0.0083,-0.0015,-0.0053,9.7
1.894,0.0112,-0.012,-0.0046,-0.006,9.8
1.895,0.0165,-0.0053,-0.006,-0.0046,9.9
1.896,0.027,-0.0023,-0.0053,-0.0105,10.0
1.897,0.027,-0.0015,-0.0068,-0.0173,10.1
1.898,0.0112,-0.0015,-0.0046,-0.0128,10.3
1.899,0.003,0.0015,-0.0015,-0.0075,10.3
1.9,-0.012,0.0015,-0.0015,-0.0038,10.5
1.901,-0.0233,0.0015,-0.003,0.0015,10.5
1.902,-0.003,0.003,-0.0008,0.0037,10.5
1.903,0.0052,0.003,0.0045,0.0,10.5
1.904,-0.003,0.0045,0.0067,-0.0083,10.6
1.905,0.0007,0.0037,0.018,-0.0098,10.6
1.906,-0.0015,0.0037,0.0225,-0.0068,10.6
1.907,-0.0015,0.0007,0.0142,-0.0046,10.6
1.908,0.0067,-0.0053,0.0045,-0.0046,10.6
1.909,0.021,-0.0091,-0.006,-0.0053,10.7
1.91,0.0225,-0.015,-0.0046,-0.0046,10.7
1.911,0.0045,-0.0165,-0.0015,-0.003,10.7
1.912,0.0105,-0.0135,-0.0046,-0.0008,10.7
1.913,0.015,-0.012,-0.0091,0.003,10.7
1.914,0.0105,-0.006,-0.0128,0.0015,10.7
1.915,0.012,-0.003,-0.0128,0.0015,10.7
1.916,0.0142,-0.0023,-0.0203,0.0007,10.7
1.917,0.0202,-0.0015,-0.0195,-0.0023,10.8
1.918,0.0172,-0.003,-0.0068,-0.0038,10.8
1.919,0.0067,0.0007,-0.0046,-0.0023,10.8
1.92,0.0,0.003,-0.0098,0.0,10.8
1.921,0.003,0.0007,-0.0165,-0.0008,10.8
1.922,-0.0008,-0.0015,-0.0203,-0.0023,10.7
1.923,-0.0158,-0.0046,-0.0173,-0.003,10.7
1.924,-0.042,0.0007,-0.0068,-0.0023,10.6
1.925,-0.0668,0.006,0.0,-0.003,10.5
1.926,-0.0653,0.0045,-0.003,-0.0046,10.4
1.927,-0.0346,0.0067,-0.0015,-0.0015,10.3
1.928,0.0015,0.0082,-0.0008,0.0015,10.3
1.929,0.0157,0.009,-0.0008,0.0045,10.2
1.93,0.0262,0.012,0.003,0.003,10.1
1.931,0.0307,0.0067,0.0172,0.0007,10.0
1.932,0.015,0.0022,0.0232,0.0015,9.9
1.933,0.0067,0.0007,0.0195,0.0022,9.9
1.934,0.0052,0.0007,0.0165,0.0007,9.8
1.935,0.003,-0.0023,0.009,-0.0015,9.7
1.936,0.0022,-0.0113,0.0082,0.0007,9.6
1.937,0.0007,-0.0165,0.0067,0.003,9.5
1.938,0.0007,-0.0158,0.006,0.0052,9.4
1.939,-0.0038,-0.012,0.0082,0.0045,9.4
1.94,-0.0046,-0.0091,0.0127,0.0022,9.2
1.941,0.0015,-0.0083,0.0105,-0.003,9.2
1.942,0.0022,-0.0083,0.0082,-0.0068,9.2
1.943,-0.0015,-0.0083,0.0127,-0.0046,9.1
1.944,-0.0023,-0.0105,0.009,-0.0023,9.0
1.945,-0.0008,-0.0098,0.009,-0.003,9.0
1.946,0.0007,-0.0083,0.0082,-0.0046,9.0
1.947,-0.0015,-0.0105,0.0007,-0.0053,8.9
1.948,-0.0015,-0.0098,0.0022,-0.0053,8.9
1.949,-0.0015,-0.012,0.0052,-0.006,8.8
1.95,-0.0046,-0.0143,0.0,-0.0053,8.7
1.951,-0.0008,-0.0158,-0.0105,-0.0068,8.7
1.952,0.0045,-0.0165,-0.0143,-0.0091,8.6
1.953,0.009,-0.0173,-0.0083,-0.0075,8.6
1.954,0.0225,-0.0225,-0.0075,-0.0091,8.5
1.955,0.0315,-0.024,-0.006,-0.0143,8.5
1.956,0.024,-0.0256,0.0007,-0.0181,8.5
1.957,0.0067,-0.027,0.0,-0.0203,8.4
1.958,-0.0046,-0.0285,-0.0015,-0.0195,8.3
1.959,-0.021,-0.0233,0.0052,-0.015,8.3
1.96,-0.0443,-0.0165,0.009,-0.003,8.2
1.961,-0.0495,-0.0128,0.0142,0.0105,8.2
1.962,-0.0293,-0.0075,0.0105,0.0165,8.2
1.963,-0.012,-0.0038,0.003,0.0157,8.2
1.964,-0.0091,0.0007,0.003,0.0187,8.2
1.965,-0.0046,0.0007,0.0007,0.0165,8.3
1.966,-0.0053,-0.0008,0.0022,0.0067,8.3
1.967,-0.0046,0.0007,0.0007,0.0007,8.3
1.968,-0.0038,0.003,-0.0015,-0.0046,8.3
1.969,-0.0053,0.0075,-0.0008,-0.0075,8.3
1.97,-0.003,0.0097,-0.0038,-0.0068,8.4
1.971,-0.0023,0.012,-0.0046,-0.0046,8.4
1.972,-0.0015,0.0142,-0.0046,-0.0015,8.4
1.973,-0.003,0.0172,-0.0038,0.0037,8.4
1.974,-0.0046,0.0195,-0.0053,0.0105,8.4
1.975,-0.0038,0.0225,-0.0083,0.0075,8.4
1.976,-0.003,0.0232,-0.0068,0.0045,8.5
1.977,-0.003,0.0202,-0.0038,0.0052,8.5
1.978,-0.003,0.0195,-0.0023,0.0015,8.5
1.979,-0.0015,0.0165,-0.003,-0.0008,8.5
1.98,-0.003,0.0165,-0.0038,-0.0008,8.5
1.981,-0.0023,0.0157,-0.0015,-0.0008,8.5
1.982,-0.0008,0.015,-0.0008,0.0,8.5
1.983,0.0,0.0187,-0.0015,0.0007,8.5
1.984,-0.0008,0.0202,0.0,0.0007,8.5
1.985,0.0007,0.0225,-0.0023,0.0015,8.5
1.986,-0.003,0.024,-0.0008,0.0052,8.5
1.987,-0.0098,0.0255,0.0007,0.0045,8.5
1.988,-0.0046,0.0247,0.0007,0.0037,8.5
1.989,0.0022,0.0255,0.0015,0.0037,8.5
1.99,0.0015,0.024,-0.0008,0.003,8.5
1.991,0.0,0.0187,0.0007,0.0015,8.5
1.992,-0.0038,0.0135,0.0015,0.003,8.5
1.993,0.0007,0.0105,0.0,0.0067,8.5
1.994,0.0037,0.0105,-0.0023,0.0067,8.5
1.995,0.0015,0.0097,-0.0046,0.0045,8.5
1.996,0.0,0.0105,-0.003,0.0052,8.5
1.997,-0.0091,0.0105,-0.0023,0.0067,8.5
1.998,-0.0173,0.012,-0.003,0.006,8.5
1.999,-0.0091,0.0127,-0.0015,0.0067,8.5
2.0,0.0067,0.012,-0.003,0.006,8.5
2.001,0.0037,0.012,-0.0046,0.0052,8.5
2.002,0.0007,0.009,-0.0075,0.006,8.5
2.003,0.003,0.0045,-0.006,0.0045,8.5
2.004,-0.0008,-0.0008,-0.0015,0.0037,8.5
2.005,-0.0053,-0.0053,-0.0046,0.003,8.5
2.006,-0.0053,-0.0105,-0.0038,0.003,8.5
2.007,0.0007,-0.012,-0.0008,0.003,8.5
2.008,0.0,-0.0105,0.0015,0.0022,8.5
2.009,0.0015,-0.012,0.0037,0.003,8.5
2.01,0.0022,-0.0113,0.0052,0.003,8.4
2.011,0.0015,-0.0113,0.0052,0.0,8.4
2.012,0.0045,-0.0091,0.0045,0.0007,8.4
2.013,0.0007,-0.0098,0.006,0.0007,8.4
2.014,0.0,-0.0098,0.006,0.0,8.4
2.015,-0.0008,-0.0083,0.0052,-0.003,8.4
2.016,-0.0008,-0.0083,0.0045,-0.0053,8.4
2.017,-0.0008,-0.0068,0.0015,-0.003,8.4
2.018,-0.0015,-0.0091,0.0022,-0.0015,8.3
2.019,0.0,-0.0091,0.0022,-0.0015,8.3
2.02,-0.0015,-0.0083,0.003,-0.0023,8.3
2.021,-0.003,-0.0091,0.0015,-0.0046,8.3
2.022,-0.0023,-0.0105,0.0007,-0.0046,8.2
2.023,-0.0015,-0.0113,0.0007,-0.0053,8.2
2.024,0.0007,-0.012,-0.0008,-0.0015,8.2
2.025,0.0007,-0.0158,-0.0008,0.0015,8.1
2.026,-0.0008,-0.0165,-0.0015,0.0007,8.1
2.027,-0.0008,-0.0113,-0.0023,-0.0008,8.1
2.028,-0.0015,-0.0091,-0.0008,-0.003,8.0
2.029,-0.0015,-0.0091,-0.003,-0.0015,8.0
2.03,-0.0008,-0.0091,-0.0008,-0.0015,7.9
2.031,-0.0008,-0.0105,-0.0008,0.0007,7.9
2.032,-0.003,-0.0128,-0.0008,0.0045,7.9
2.033,-0.003,-0.0143,0.0007,0.0015,7.8
2.034,-0.0023,-0.0165,0.0007,-0.0008,7.8
2.035,-0.003,-0.0158,0.0015,-0.0023,7.7
2.036,-0.0015,-0.0158,0.0007,-0.0023,7.7
2.037,-0.0015,-0.0143,0.0015,-0.0053,7.7
2.038,-0.0023,-0.0143,0.0052,-0.0075,7.6
2.039,-0.0008,-0.0128,0.0052,-0.0075,7.6
2.04,-0.0015,-0.0083,0.0022,-0.0098,7.5
2.041,-0.003,-0.0053,0.0015,-0.0083,7.5
2.042,-0.003,-0.0046,0.0,-0.0068,7.5
2.043,-0.003,-0.0008,0.0,-0.0053,7.4
2.044,-0.0015,0.0,0.0015,-0.0053,7.3
2.045,0.003,0.0015,0.0007,-0.0038,7.3
2.046,0.0007,0.0037,-0.003,-0.0008,7.2
2.047,-0.0008,0.0037,-0.003,0.0015,7.2
2.048,-0.003,0.003,-0.003,0.0067,7.1
2.049,-0.0023,0.0022,-0.0038,0.0045,7.1
2.05,-0.0023,0.0045,-0.0008,0.0007,7.0
2.051,-0.0038,0.003,0.0007,0.0007,7.0
2.052,-0.0008,0.003,0.0007,-0.0015,6.9
2.053,0.0007,0.0037,0.0007,-0.0008,6.8
2.054,0.0015,0.0045,0.0007,-0.0008,6.8
2.055,0.0052,0.0075,-0.0015,-0.0015,6.7
2.056,0.009,0.0075,-0.0008,-0.0008,6.7
2.057,0.0015,0.0082,0.0007,0.0,6.7
2.058,-0.0068,0.006,0.0007,0.0015,6.6
2.059,-0.0046,0.0037,-0.0008,0.0015,6.5
2.06,-0.0046,0.003,-0.0023,-0.0015,6.4
2.061,-0.0053,0.0015,-0.0008,-0.0023,6.4
2.062,-0.0046,0.0007,0.0015,-0.0008,6.4
2.063,-0.0038,0.0007,0.0007,-0.0008,6.3
2.064,-0.0023,0.0007,0.003,0.0,6.3
2.065,-0.003,0.0015,0.0022,-0.0015,6.2
2.066,-0.0038,0.0037,0.0015,-0.0046,6.2
2.067,-0.003,0.003,0.0037,-0.0053,6.1
2.068,-0.0038,0.0067,0.0015,-0.006,6.1
2.069,-0.003,0.0097,0.0022,-0.003,6.0
2.07,-0.003,0.0135,0.0022,0.003,6.0
2.071,-0.003,0.0142,0.0022,0.0045,5.9
2.072,-0.0038,0.0007,0.003,0.0015,5.9
2.073,-0.003,0.0015,0.0022,-0.0008,5.8
2.074,-0.003,0.0045,0.0007,0.0007,5.8
2.075,-0.003,0.0,-0.0008,0.0022,5.7
2.076,-0.003,0.003,-0.003,0.006,5.7
2.077,-0.003,0.003,-0.0023,0.0082,5.6
2.078,-0.0053,0.0045,-0.0008,0.009,5.6
2.079,-0.0053,0.003,-0.0023,0.0067,5.5
2.08,-0.0038,0.0015,-0.0008,0.0015,5.4
2.081,-0.0023,0.0,-0.0008,0.0,5.4
2.082,0.0007,-0.003,-0.003,-0.0053,5.4
2.083,0.0007,-0.0015,-0.0053,-0.0046,5.3
2.084,-0.0008,-0.0015,-0.0046,-0.0015,5.3
2.085,-0.003,-0.0008,-0.0046,0.0007,5.2
2.086,-0.0053,0.0015,-0.0053,0.003,5.2
2.087,-0.0053,0.0045,-0.0053,0.009,5.1
2.088,-0.0038,0.0045,-0.0053,0.0105,5.1
2.089,-0.0053,0.0037,-0.0015,0.0075,5.0
2.09,-0.003,0.003,-0.0008,0.0067,4.9
2.091,0.0015,0.0045,-0.0008,0.0067,4.9
2.092,0.003,0.003,-0.0008,0.0045,4.9
2.093,0.0045,0.003,0.0015,0.0015,4.8
2.094,0.003,0.0015,0.0045,0.0015,4.8
2.095,0.003,-0.0015,-0.0008,0.0,4.7
2.096,0.0045,-0.0023,-0.0053,-0.0015,4.7
2.097,0.0052,-0.0023,-0.0068,-0.0046,4.6
2.098,0.0037,-0.003,-0.0053,-0.0046,4.5
2.099,-0.0008,-0.0053,-0.003,-0.0046,4.5
2.1,-0.0038,-0.0068,-0.003,-0.0068,4.4
2.101,-0.0023,-0.0083,-0.0046,-0.0053,4.4
2.102,0.0007,-0.0091,-0.0023,-0.0046,4.4
2.103,-0.0046,-0.0083,0.0007,-0.003,4.3
2.104,-0.0068,-0.0053,-0.0008,-0.0015,4.2
2.105,-0.0038,-0.0038,-0.003,-0.0008,4.2
2.106,-0.0023,-0.0038,-0.0015,0.0007,4.1
2.107,-0.0008,-0.003,0.0007,-0.0008,4.0
2.108,-0.0038,-0.003,0.0075,-0.0008,4.0
2.109,-0.003,-0.003,0.0082,-0.0008,4.0
2.11,-0.0023,-0.0015,0.0075,-0.0008,3.9
2.111,-0.0023,-0.0023,0.0052,-0.0015,3.8
2.112,-0.003,-0.006,0.0037,-0.0053,3.8
2.113,-0.003,-0.0068,0.0067,-0.0068,3.7
2.114,-0.0015,-0.0068,0.0082,-0.0038,3.6
2.115,-0.0008,-0.0083,0.0067,-0.0038,3.6
2.116,0.0045,-0.0068,0.0045,-0.0008,3.6
2.117,0.009,-0.0053,0.0015,-0.0023,3.5
2.118,0.012,-0.003,0.0,-0.003,3.4
2.119,0.0015,0.0,0.0015,-0.0015,3.4
2.12,-0.015,0.0015,0.0015,-0.0015,3.3
2.121,-0.0165,0.0052,0.0007,-0.0008,3.3
2.122,-0.0083,0.006,-0.0008,-0.0008,3.2
2.123,-0.0008,0.006,-0.003,-0.0008,3.2
2.124,-0.003,0.0052,-0.0046,0.0007,3.1
2.125,-0.0015,0.003,-0.0053,0.0,3.1
2.126,-0.0015,0.0022,-0.0046,-0.003,3.0
2.127,-0.006,0.0007,-0.003,-0.003,3.0
2.128,-0.0105,0.0,-0.0046,-0.0023,2.9
2.129,-0.0075,0.0022,-0.0046,-0.003,2.9
2.13,-0.003,0.0007,-0.0053,-0.003,2.8
2.131,-0.0068,-0.0008,-0.003,-0.0023,2.8
2.132,-0.0046,-0.003,0.0007,-0.0023,2.7
2.133,-0.0038,-0.0046,-0.0008,-0.003,2.7
2.134,-0.0015,-0.0053,-0.0015,-0.003,2.6
2.135,0.0015,-0.0053,0.0,-0.0008,2.6
2.136,0.0,-0.003,0.003,0.0,2.5
2.137,-0.0015,0.0007,0.0052,0.0,2.5
2.138,0.0007,0.0007,0.0052,0.0,2.4
2.139,0.0007,0.0007,0.0052,-0.0008,2.4
2.14,0.0,0.0007,0.0052,0.0,2.3
2.141,0.0007,0.0015,0.003,-0.0008,2.3
2.142,-0.0008,0.003,0.0007,-0.0008,2.3
2.143,0.0007,0.003,0.0,-0.0015,2.2
2.144,-0.0015,0.0037,0.0015,-0.0023,2.2
2.145,-0.0023,0.0037,0.0022,-0.0008,2.2
2.146,-0.0008,0.0037,0.0015,-0.0008,2.2
2.147,-0.0038,0.003,-0.0008,-0.0023,2.2
2.148,-0.0015,0.0007,0.0015,-0.0008,2.1
2.149,-0.0015,-0.0023,0.0022,0.0007,2.1
2.15,-0.0023,-0.003,0.0015,-0.0008,2.1
2.151,-0.003,-0.003,0.003,0.0,2.0
2.152,-0.0046,-0.0038,0.0052,-0.0008,2.0
2.153,-0.0038,-0.0046,0.0052,0.0,2.0
2.154,-0.0015,-0.0053,0.0045,0.0015,2.0
2.155,-0.0015,-0.0046,0.0045,0.0007,1.9
2.156,-0.003,-0.0053,0.0037,-0.0008,1.9
2.157,-0.003,-0.0068,0.003,-0.003,1.9
2.158,-0.0046,-0.0068,0.0015,-0.0015,1.8
2.159,-0.0046,-0.0068,0.0015,-0.0023,1.8
2.16,-0.0046,-0.0053,0.0,-0.003,1.8
2.161,-0.0053,-0.0046,-0.003,-0.0046,1.8
2.162,-0.0053,-0.003,-0.0046,-0.006,1.8
2.163,-0.0046,0.0007,-0.003,-0.006,1.8
2.164,-0.0023,0.003,-0.0015,-0.006,1.7
2.165,-0.0008,0.0045,-0.0015,-0.0053,1.7
2.166,0.0037,0.0067,0.0007,-0.0046,1.7
2.167,0.009,0.0075,0.0022,-0.0053,1.7
2.168,0.0097,0.006,0.0007,-0.0053,1.6
2.169,0.0007,0.003,0.0015,-0.003,1.6
2.17,-0.0053,0.0,0.0,-0.0023,1.6
2.171,-0.0091,0.0,-0.0015,-0.0023,1.6
2.172,-0.003,-0.0008,-0.0008,-0.0008,1.6
2.173,0.0052,-0.0015,-0.0008,-0.0008,1.5
2.174,-0.0023,-0.0038,0.0,-0.0008,1.5
2.175,0.0067,-0.0053,-0.003,-0.0008,1.5
2.176,0.0217,-0.0083,-0.0038,0.0015,1.5
2.177,0.0232,-0.0075,-0.0015,0.0015,1.4
2.178,0.0127,-0.0083,-0.0023,0.0015,1.4
2.179,-0.0098,-0.0068,-0.0015,0.0015,1.4
2.18,-0.0225,-0.0038,-0.0008,0.0022,1.3
2.181,-0.0308,-0.0008,0.0007,0.0045,1.3
2.182,-0.0218,0.0,-0.003,0.0052,1.3
2.183,-0.003,0.0022,-0.003,0.0045,1.3
2.184,0.0015,0.0037,0.0022,0.0015,1.3
2.185,0.0015,0.0007,0.0007,0.0015,1.3
2.186,0.0007,-0.003,0.0,0.003,1.3
2.187,0.0007,-0.0068,0.0015,0.0007,1.3
2.188,-0.0008,-0.0053,0.0052,-0.0008,1.2
2.189,-0.0046,-0.0046,0.0067,-0.0023,1.2
2.19,-0.0053,-0.0053,0.0022,-0.0015,1.2
2.191,-0.0053,-0.0053,0.0022,-0.0015,1.2
2.192,-0.003,-0.0075,-0.0008,-0.0015,1.2
2.193,-0.0008,-0.0091,-0.0015,-0.0008,1.1
2.194,0.0007,-0.0091,-0.003,-0.0008,1.1
2.195,0.0007,-0.0083,-0.0046,0.0,1.1
2.196,-0.0015,-0.006,-0.0023,-0.0008,1.1
2.197,-0.003,-0.0046,-0.0015,-0.0008,1.0
2.198,-0.0008,-0.003,0.0007,0.0007,1.0
2.199,-0.0008,0.0,0.0,-0.0023,1.0
2.2,-0.0008,0.0007,-0.0008,-0.0053,0.9
2.201,0.0,0.0007,-0.0015,-0.0046,0.9
2.202,-0.0008,0.0015,-0.0023,-0.0015,0.9
2.203,-0.0015,0.0015,0.0007,0.0007,0.9
2.204,-0.0015,-0.0008,0.0007,0.0007,0.9
2.205,-0.0008,-0.0008,0.0007,0.0,0.9
2.206,0.0007,-0.0015,0.0015,-0.0015,0.9
2.207,-0.0008,-0.0015,0.0007,-0.0008,0.9
2.208,0.0007,0.0007,0.0015,0.0007,0.9
2.209,0.0,0.0007,0.0045,0.0015,0.9
2.21,-0.0023,0.0015,0.0067,0.0007,0.9
2.211,-0.003,0.003,0.003,-0.0008,0.9
2.212,-0.0038,0.0037,-0.0008,0.0007,0.9
2.213,-0.0038,0.0052,-0.0038,0.0015,0.9
2.214,-0.0046,0.0045,-0.003,-0.0015,0.9
2.215,-0.0046,0.0015,-0.0015,-0.0015,0.9
2.216,-0.0046,0.0037,-0.0008,-0.0015,0.9
2.217,-0.003,0.0052,0.0022,-0.003,0.9
2.218,-0.0015,0.0075,0.0022,-0.003,0.8
2.219,0.0,0.0142,0.0015,-0.0015,0.8
2.22,0.0007,0.0187,-0.003,-0.0015,0.8
2.221,0.0007,0.0172,-0.0083,-0.0015,0.8
2.222,0.0015,0.0165,-0.0083,-0.0015,0.8
2.223,0.0007,0.015,-0.0068,-0.0023,0.8
2.224,-0.0008,0.0135,0.0,-0.0015,0.8
2.225,0.0007,0.0105,0.0015,-0.0008,0.8
2.226,-0.0015,0.0052,0.0007,-0.0008,0.8
2.227,-0.0046,0.0045,-0.0008,-0.0015,0.8
2.228,-0.0015,0.0037,-0.0015,-0.0038,0.8
2.229,0.0045,0.0052,0.0007,-0.003,0.8
2.23,0.0052,0.006,0.0007,-0.0015,0.8
2.231,0.009,0.006,0.003,-0.0015,0.8
2.232,0.0052,0.0067,0.0052,-0.0015,0.8
2.233,-0.0128,0.0045,0.0052,-0.0038,0.8
2.234,-0.0091,0.0082,0.003,-0.003,0.8
2.235,0.003,0.006,0.0007,-0.003,0.8
2.236,-0.0008,0.003,0.0022,-0.0046,0.8
2.237,0.0007,0.0022,0.0022,-0.003,0.8
2.238,-0.0015,0.0,0.0022,-0.0023,0.8
2.239,-0.006,0.0015,0.0,-0.0038,0.8
2.24,-0.0075,0.0,-0.0008,-0.003,0.7
2.241,-0.0023,-0.0068,0.0007,-0.003,0.7
2.242,0.003,-0.0105,0.003,-0.003,0.7
2.243,0.003,-0.012,0.0007,-0.0008,0.8
2.244,0.0007,-0.0128,-0.003,0.0007,0.8
2.245,-0.0038,-0.0098,-0.0023,0.0007,0.8
2.246,-0.0046,-0.0128,-0.0023,0.0007,0.8
2.247,-0.0046,-0.015,-0.003,0.0,0.8
2.248,-0.006,-0.012,-0.003,0.0007,0.8
2.249,-0.0046,-0.0113,-0.0015,0.003,0.8
2.25,-0.006,-0.0098,0.0007,0.0045,0.8
2.251,-0.0075,-0.0083,0.0007,0.003,0.8
2.252,-0.0075,-0.0068,0.0007,0.003,0.8
2.253,-0.006,-0.0038,0.0015,0.0037,0.9
2.254,-0.0038,-0.0015,0.003,0.0022,0.9
2.255,0.0022,-0.003,0.0015,0.003,0.9
2.256,0.0105,-0.0008,0.0,0.0022,0.9
2.257,0.0112,0.0007,-0.0015,0.003,0.9
2.258,0.0037,0.0007,-0.0023,0.003,0.9
2.259,-0.0068,0.0052,-0.0038,0.0015,0.9
2.26,-0.0105,0.006,-0.0053,0.0022,0.9
2.261,-0.0091,0.0075,-0.003,0.0015,0.9
2.262,-0.0113,0.0082,-0.0015,0.0007,0.9
2.263,-0.0091,0.0105,-0.0015,0.0007,0.9
2.264,-0.003,0.0157,-0.0008,-0.0008,0.9
2.265,-0.0008,0.0127,-0.0008,-0.0015,1.0
2.266,0.003,0.0082,0.0,-0.0023,1.0
2.267,-0.0015,0.003,0.0007,-0.0015,1.0
2.268,-0.0068,0.0,0.0015,-0.0008,1.0
2.269,-0.0053,-0.0015,0.0015,-0.0008,1.0
2.27,-0.0038,-0.003,-0.0008,-0.0015,1.0
2.271,-0.0015,-0.0053,-0.0046,-0.0015,1.0
2.272,-0.0008,-0.0075,-0.0046,-0.0015,1.1
2.273,0.0,-0.0113,-0.0015,-0.0038,1.1
2.274,0.0,-0.0181,0.0007,-0.0046,1.1
2.275,0.0007,-0.0225,0.0007,-0.0046,1.1
2.276,0.0015,-0.024,0.0,-0.0038,1.1
2.277,-0.0008,-0.0233,0.0007,-0.0046,1.1
2.278,-0.0023,-0.0203,0.0022,-0.003,1.1
2.279,-0.0015,-0.0158,0.003,-0.0038,1.2
2.28,-0.0023,-0.0128,0.0015,-0.0046,1.2
2.281,-0.0053,-0.0143,0.0007,-0.003,1.2
2.282,-0.0038,-0.0128,-0.0023,-0.0023,1.2
2.283,0.0007,-0.0105,-0.0023,-0.003,1.2
2.284,0.0015,-0.0091,-0.0008,-0.0015,1.3
2.285,0.0007,-0.0075,-0.0015,-0.0008,1.3
2.286,0.0,-0.0068,-0.0008,-0.0008,1.3
2.287,0.003,-0.0046,-0.0008,-0.0008,1.3
2.288,0.0052,-0.0053,-0.0008,-0.0008,1.3
2.289,0.0037,-0.0046,-0.0015,-0.0015,1.3
2.29,0.003,-0.0046,-0.0008,-0.0008,1.4
2.291,0.0007,-0.0008,0.0015,0.0,1.4
2.292,0.0007,0.0015,0.0015,0.0007,1.4
2.293,0.0007,0.0022,0.0037,-0.0008,1.4
2.294,0.0007,0.0045,0.0052,-0.0008,1.4
2.295,0.0,0.003,0.0052,0.0007,1.5
2.296,-0.003,0.003,0.0052,-0.0008,1.5
2.297,-0.003,0.0007,0.003,-0.0015,1.5
2.298,-0.0046,-0.0015,0.0037,-0.0008,1.5
2.299,-0.0053,-0.0015,0.003,-0.0008,1.6
2.3,-0.0038,0.0015,0.003,-0.0015,1.6
2.301,-0.003,0.0037,0.0015,-0.003,1.6
2.302,-0.003,0.0015,-0.0008,-0.0023,1.7
2.303,-0.003,0.0015,-0.0008,-0.0046,1.7
2.304,-0.003,-0.0008,-0.0008,-0.0038,1.7
2.305,-0.003,0.0007,-0.0008,-0.0046,1.8
2.306,-0.0038,0.0007,0.0,-0.0046,1.8
2.307,-0.0038,-0.0015,0.0015,-0.003,1.8
2.308,-0.003,0.0,0.0007,-0.003,1.9
2.309,-0.0015,-0.0008,0.0015,-0.0023,1.9
2.31,-0.0008,-0.0023,0.0022,-0.0015,2.0
2.311,0.0007,-0.003,0.0007,-0.0008,2.0
2.312,0.0,-0.0038,0.0007,-0.0008,2.0
2.313,-0.0008,-0.003,0.0022,0.0,2.1
2.314,0.0,-0.0015,0.0007,-0.0008,2.1
2.315,-0.0023,0.0007,-0.0015,-0.0015,2.2
2.316,-0.003,0.0022,-0.003,-0.0008,2.2
2.317,-0.0008,0.0015,-0.0053,0.0007,2.2
2.318,0.0045,0.0007,-0.0053,0.0015,2.2
2.319,0.0067,-0.0015,-0.0046,0.0007,2.3
2.32,0.0075,-0.003,-0.0046,0.0,2.3
2.321,0.003,-0.003,-0.0038,-0.0008,2.4
2.322,-0.0008,-0.0008,-0.003,-0.0008,2.4
2.323,-0.0015,0.0022,-0.0046,0.0022,2.5
2.324,-0.003,0.0037,-0.0053,0.0052,2.5
2.325,-0.003,0.0052,-0.0068,0.0015,2.6
2.326,-0.003,0.0067,-0.003,0.0015,2.6
2.327,-0.0015,0.0097,0.0007,0.0037,2.7
2.328,-0.0023,0.009,0.0015,0.0015,2.7
2.329,-0.0053,0.0105,0.0022,0.0022,2.8
2.33,-0.003,0.0105,0.0015,0.0015,2.8
2.331,-0.003,0.009,0.0015,0.0015,2.9
2.332,-0.0046,0.0082,0.0007,0.0015,2.9
2.333,-0.0046,0.0052,0.0015,-0.0015,3.0
2.334,-0.006,0.003,0.0037,-0.003,3.0
2.335,-0.0068,0.0015,0.0015,-0.0046,3.1
2.336,-0.0091,0.0007,0.0,-0.0023,3.1
2.337,-0.0098,-0.0015,-0.0008,-0.0008,3.2
2.338,-0.006,0.0,0.0,-0.0023,3.2
2.339,0.0,0.0015,0.0007,-0.0038,3.3
2.34,0.0082,0.0,0.0015,-0.0038,3.3
2.341,0.006,-0.0008,0.003,-0.003,3.4
2.342,-0.0008,-0.0015,0.0022,-0.0023,3.5
2.343,-0.0046,-0.0008,0.0022,-0.0008,3.5
2.344,-0.006,0.0007,0.0015,0.0,3.6
2.345,-0.003,0.0015,0.0015,-0.0008,3.6
2.346,0.0015,0.003,0.0007,-0.0015,3.7
2.347,-0.0015,0.003,0.0007,-0.0023,3.7
2.348,-0.0053,0.0037,-0.0015,-0.0023,3.8
2.349,-0.0008,0.0052,-0.003,-0.0053,3.9
2.35,-0.0008,0.0075,-0.003,-0.0068,3.9
2.351,-0.0015,0.0082,-0.0038,-0.0053,4.0
2.352,-0.0015,0.0052,-0.0053,-0.0046,4.0
2.353,-0.003,0.003,-0.006,-0.0046,4.1
2.354,-0.003,0.0037,-0.006,-0.0023,4.1
2.355,-0.0046,0.0022,-0.0068,0.0015,4.2
2.356,-0.0023,0.0015,-0.0083,0.0007,4.3
2.357,-0.0038,0.0,-0.006,0.0,4.3
2.358,-0.0053,-0.003,-0.0053,-0.0008,4.4
2.359,-0.0053,-0.0046,-0.0038,-0.0008,4.5
2.36,-0.0068,-0.0053,-0.0023,0.0007,4.5
2.361,-0.0046,-0.0068,-0.0008,0.0007,4.6
2.362,-0.0008,-0.0083,0.003,0.0015,4.6
2.363,0.0015,-0.0083,0.006,0.0007,4.7
2.364,0.003,-0.0083,0.0052,0.0015,4.8
2.365,0.0082,-0.0068,0.0045,0.0022,4.9
2.366,0.0157,-0.003,0.0037,0.0015,4.9
2.367,0.018,-0.003,0.003,0.0015,5.0
2.368,0.0165,-0.0023,0.0067,0.003,5.0
2.369,0.0082,-0.003,0.009,0.0,5.1
2.37,-0.0015,-0.0038,0.009,0.0,5.2
2.371,-0.0053,-0.003,0.0045,-0.0015,5.3
2.372,-0.0091,-0.0046,0.0015,-0.0046,5.3
2.373,-0.0083,-0.003,-0.0008,-0.0038,5.4
2.374,-0.0068,-0.0015,-0.0008,-0.0015,5.5
2.375,-0.003,-0.0023,0.0022,-0.0008,5.5
2.376,0.0067,-0.003,0.0037,0.0015,5.6
2.377,0.0022,-0.0023,0.0015,0.0,5.7
2.378,-0.0053,-0.0008,0.0015,-0.0015,5.8
2.379,-0.0075,0.0007,0.0022,-0.0015,5.8
2.38,-0.0053,0.0015,-0.0008,-0.0008,5.9
2.381,-0.0008,0.0015,-0.0015,0.0,6.0
2.382,-0.0015,0.0007,-0.0008,-0.0008,6.1
2.383,-0.0046,0.0007,0.0007,-0.0023,6.2
2.384,-0.0046,-0.0015,0.0045,-0.003,6.3
2.385,-0.006,0.0,0.0045,-0.0023,6.4
2.386,-0.0068,0.0015,0.0015,0.0,6.5
2.387,-0.0083,0.003,-0.0015,0.0,6.6
2.388,-0.0083,0.0022,-0.0008,-0.0015,6.7
2.389,-0.0068,0.003,-0.0023,-0.0008,6.8
2.39,-0.0068,0.006,-0.003,0.0007,6.9
2.391,-0.0068,0.006,0.0007,0.0007,7.0
2.392,-0.006,0.0045,0.003,0.0015,7.1
2.393,-0.006,0.0052,0.0037,0.0007,7.2
2.394,-0.003,0.0037,0.0022,0.0022,7.3
2.395,-0.0023,0.0007,0.0015,0.003,7.4
2.396,0.0015,0.0015,0.0007,0.0007,7.5
2.397,0.003,0.0015,-0.0023,0.0007,7.6
2.398,-0.0008,0.0022,-0.0015,0.0015,7.7
2.399,0.003,0.0022,-0.0038,0.003,7.8
2.4,0.009,0.003,-0.0046,0.0045,7.9
2.401,0.0127,0.0037,0.0007,0.0037,8.1
2.402,0.0082,0.0022,0.0022,0.0015,8.2
2.403,0.0007,0.0007,0.0037,0.0015,8.3
2.404,-0.0038,0.0,0.0007,0.0007,8.5
2.405,-0.0068,0.0,-0.0008,0.0015,8.6
2.406,-0.0015,-0.0015,0.0007,0.0022,8.7
2.407,0.0,-0.0015,0.0015,0.003,8.9
2.408,-0.003,-0.0008,0.0022,0.003,9.0
2.409,-0.0046,-0.0023,0.0015,0.0007,9.1
2.41,-0.0053,-0.0015,0.0022,0.0037,9.3
2.411,-0.0046,-0.0008,0.003,0.0045,9.4
2.412,-0.003,-0.0015,0.0037,0.0007,9.5
2.413,-0.0015,-0.0015,0.0022,0.0015,9.7
2.414,-0.003,-0.003,0.0015,0.0015,9.8
2.415,-0.0053,-0.0053,-0.0008,0.0022,9.9
2.416,-0.006,-0.0053,0.0,0.0015,10.1
2.417,-0.0053,-0.003,0.0007,0.0015,10.2
2.418,-0.003,-0.0015,-0.0008,0.0015,10.3
2.419,-0.0053,0.0,0.0007,0.0007,10.5
2.42,-0.0068,-0.003,0.0015,0.0015,10.6
2.421,-0.0068,-0.0023,0.0015,0.003,10.8
2.422,-0.0038,-0.0008,0.0007,0.0045,11.0
2.423,-0.0008,-0.0046,0.0,0.003,11.2
2.424,-0.0023,-0.0068,-0.0015,0.0022,11.3
2.425,0.0,-0.0075,-0.0023,0.0015,11.5
2.426,-0.0008,-0.0083,-0.0038,0.0,11.7
2.427,-0.0023,-0.0091,-0.0053,0.0022,11.8
2.428,0.0007,-0.0091,-0.0053,0.0022,12.0
2.429,0.0037,-0.0105,-0.006,0.0007,12.2
2.43,0.003,-0.0135,-0.006,-0.0015,12.4
2.431,0.0015,-0.0165,-0.0046,-0.0015,12.6
2.432,-0.0023,-0.0181,-0.0023,-0.003,12.7
2.433,-0.0053,-0.0173,-0.0023,-0.003,12.9
2.434,-0.0038,-0.015,-0.0008,-0.0008,13.1
2.435,-0.0008,-0.0135,0.0007,-0.0015,13.3
2.436,0.0037,-0.0128,0.0007,0.0007,13.4
2.437,0.0052,-0.012,0.0007,0.0015,13.6
2.438,0.0045,-0.0091,0.0015,0.0015,13.8
2.439,0.0037,-0.0068,0.0045,0.0015,13.9
2.44,-0.0015,-0.0068,0.0045,0.0,14.1
2.441,-0.0053,-0.0046,0.0052,0.0007,14.4
2.442,-0.0038,-0.003,0.0067,0.0015,14.6
2.443,-0.003,-0.0008,0.006,-0.0008,14.8
2.444,-0.003,0.0015,0.0045,0.0,15.0
2.445,-0.0015,0.0015,0.003,0.0,15.2
2.446,0.0,0.0052,0.0015,-0.0015,15.4
2.447,0.0007,0.0045,-0.0008,-0.0015,15.7
2.448,0.0007,0.0052,-0.0015,-0.0023,15.9
2.449,0.0007,0.0052,-0.003,-0.0015,16.1
2.45,0.0015,0.0045,-0.0008,-0.003,16.3
2.451,-0.0008,0.0045,0.0,-0.0046,16.5
2.452,-0.003,0.0022,-0.003,-0.0023,16.7
2.453,-0.003,0.0007,-0.0046,-0.003,17.0
2.454,-0.003,0.0,-0.0046,-0.0053,17.2
2.455,-0.003,-0.0008,-0.0053,-0.0046,17.4
2.456,-0.0046,-0.0015,-0.0083,-0.0053,17.6
2.457,-0.0038,-0.003,-0.0091,-0.0046,17.8
2.458,-0.0023,-0.003,-0.0105,-0.0015,18.0
2.459,-0.003,-0.003,-0.0083,-0.0023,18.3
2.46,-0.0023,-0.0023,-0.006,-0.0038,18.5
2.461,-0.0008,-0.003,-0.0068,-0.0053,18.7
2.462,0.0,-0.003,-0.0046,-0.0068,19.0
2.463,0.0,-0.0015,-0.003,-0.0068,19.3
2.464,-0.0015,0.0007,-0.0015,-0.0083,19.5
2.465,-0.003,0.0007,-0.0008,-0.0068,19.8
2.466,-0.003,0.0022,-0.0008,-0.0038,20.0
2.467,-0.0008,0.0045,-0.0015,-0.0015,20.2
2.468,-0.0015,0.0067,-0.0008,-0.0023,20.5
2.469,-0.003,0.009,0.0,-0.0023,20.7
2.47,-0.003,0.0105,-0.0015,-0.0008,21.0
2.471,-0.0053,0.0112,0.0007,0.0007,21.2
2.472,-0.0053,0.0097,0.0,0.0007,21.5
2.473,-0.0046,0.009,0.0007,-0.0008,21.7
2.474,-0.0068,0.0082,0.0007,-0.0008,22.0
2.475,-0.0053,0.0067,0.0015,-0.0023,22.2
2.476,-0.0053,0.0075,-0.0015,-0.003,22.5
2.477,-0.0038,0.0067,-0.0023,-0.0038,22.7
2.478,-0.0023,0.0052,-0.0008,-0.003,22.9
2.479,-0.0015,0.003,0.0007,-0.0015,23.2
2.48,-0.0008,0.0022,0.0015,-0.0015,23.4
2.481,0.0007,0.0007,-0.0008,-0.0015,23.7
2.482,0.0,-0.0015,-0.0046,-0.003,23.9
2.483,-0.0015,-0.0008,-0.0091,-0.003,24.2
2.484,-0.0008,-0.003,-0.0075,-0.0046,24.4
2.485,0.0007,-0.0008,-0.0075,-0.0053,24.7
2.486,0.0015,0.0,-0.0068,-0.0053,24.9
2.487,0.0015,-0.0008,-0.0046,-0.0038,25.2
2.488,-0.0008,-0.0015,-0.0015,-0.0023,25.4
2.489,0.0015,-0.0008,0.0007,-0.003,25.7
2.49,0.0007,-0.0015,0.0022,-0.0023,25.9
2.491,-0.0008,-0.0046,0.0045,-0.003,26.1
2.492,-0.0015,-0.0023,0.0015,-0.0046,26.4
2.493,-0.0008,-0.0038,0.0045,-0.0053,26.7
2.494,-0.0015,-0.0046,0.0052,-0.003,26.9
2.495,-0.003,-0.0015,0.0067,-0.003,27.2
2.496,-0.0015,-0.0008,0.0037,-0.003,27.4
2.497,-0.003,0.0007,0.003,-0.0008,27.6
2.498,-0.003,0.0007,0.0052,0.0007,27.9
2.499,-0.0038,0.0007,0.0022,0.0015,28.2
2.5,-0.0046,0.0007,0.0037,0.003,28.4
2.501,-0.0046,0.003,0.003,0.003,28.6
2.502,-0.0053,0.0045,0.0037,0.0045,28.8
2.503,-0.003,0.0045,0.003,0.0045,29.0
2.504,-0.0015,0.0045,0.0015,0.0045,29.2
2.505,-0.0015,0.003,0.0037,0.0045,29.4
2.506,-0.0008,0.003,0.0022,0.0015,29.6
2.507,-0.0023,0.003,0.003,0.0037,29.8
2.508,-0.0015,0.0045,0.0015,0.0037,30.0
2.509,-0.0015,0.0037,0.0015,0.0015,30.2
2.51,-0.0023,0.0022,0.0045,0.0015,30.5
2.511,-0.0015,0.0045,0.0052,0.0015,30.6
2.512,-0.0046,0.0067,0.0045,0.0022,30.9
2.513,-0.0038,0.0052,0.003,0.0015,31.0
2.514,-0.003,0.003,0.0007,-0.0008,31.3
2.515,-0.003,0.0015,-0.0015,-0.0015,31.5
2.516,-0.0038,-0.0008,-0.003,-0.0038,31.7
2.517,-0.0046,-0.003,-0.003,-0.006,31.9
2.518,-0.0046,-0.0046,-0.003,-0.0075,32.1
2.519,-0.0053,-0.0046,-0.0023,-0.0091,32.3
2.52,-0.0053,-0.0046,-0.0023,-0.0083,32.5
2.521,-0.0046,-0.0053,0.0,-0.0075,32.6
2.522,-0.0046,-0.0068,-0.0008,-0.0075,32.8
2.523,-0.006,-0.0083,-0.0015,-0.0105,32.9
2.524,-0.0053,-0.0091,-0.0015,-0.0091,33.1
2.525,-0.0038,-0.0105,0.0,-0.0083,33.3
2.526,-0.003,-0.012,0.003,-0.0091,33.4
2.527,-0.003,-0.0105,0.0022,-0.0083,33.5
2.528,-0.0023,-0.0091,0.003,-0.0068,33.7
2.529,-0.0008,-0.0083,0.0015,-0.0053,33.8
2.53,0.0007,-0.0068,0.0015,-0.0046,34.0
2.531,0.003,-0.0083,0.0007,-0.0053,34.1
2.532,0.003,-0.0083,0.0007,-0.0068,34.3
2.533,0.0007,-0.006,0.0007,-0.0068,34.5
2.534,-0.0008,-0.0046,0.0015,-0.0083,34.6
2.535,-0.003,-0.0053,0.0015,-0.0068,34.7
2.536,-0.0015,-0.0046,0.0,-0.006,34.9
2.537,-0.003,-0.003,0.0015,-0.0053,35.1
2.538,-0.0015,-0.0053,0.0045,-0.0015,35.2
2.539,-0.0008,-0.0083,0.0067,0.0015,35.4
2.54,-0.0023,-0.0091,0.0082,0.003,35.5
2.541,-0.0008,-0.0068,0.0067,0.003,35.6
2.542,0.0007,-0.0023,0.0075,0.003,35.8
2.543,-0.0008,0.0,0.0052,0.003,36.0
2.544,0.0007,0.0,0.003,0.003,36.1
2.545,-0.0008,0.0007,0.0007,0.003,36.3
2.546,-0.0008,0.0007,-0.0015,0.0015,36.4
2.547,-0.0008,0.003,0.0,0.003,36.5
2.548,0.0007,0.0045,0.0,0.003,36.7
2.549,0.0007,0.0052,0.0,0.0045,36.9
2.55,0.0007,0.0052,-0.0008,0.0067,37.0
2.551,-0.0015,0.003,-0.003,0.0067,37.1
2.552,-0.0015,0.0037,-0.0038,0.0052,37.3
2.553,-0.0015,0.0045,-0.0038,0.0045,37.4
2.554,-0.0023,0.0067,-0.0038,0.0022,37.6
2.555,-0.0008,0.0067,-0.003,0.0015,37.8
2.556,-0.0015,0.0052,-0.0053,-0.0008,37.9
2.557,-0.0015,0.006,-0.0053,-0.003,38.0
2.558,-0.0015,0.0067,-0.003,-0.0053,38.2
2.559,-0.003,0.0052,-0.0046,-0.0068,38.3
2.56,-0.0023,0.0045,-0.0008,-0.0083,38.5
2.561,-0.0023,0.0015,-0.0008,-0.0105,38.6
2.562,-0.0023,0.0007,-0.0015,-0.0091,38.7
2.563,-0.0023,0.0007,-0.0008,-0.0083,38.9
2.564,-0.0046,0.0007,0.0007,-0.0068,39.0
2.565,-0.0046,0.0015,0.0037,-0.0038,39.1
2.566,-0.003,0.0007,0.003,-0.0046,39.3
2.567,-0.0015,0.0007,0.0015,-0.006,39.4
2.568,-0.003,0.0015,0.0007,-0.0046,39.6
2.569,-0.0015,0.0022,0.0,-0.0046,39.7
2.57,-0.0023,0.0037,-0.0015,-0.003,39.9
2.571,-0.0046,0.003,-0.003,-0.0023,40.0
2.572,-0.003,0.003,-0.0008,-0.0046,40.1
2.573,-0.0038,0.0007,-0.0015,-0.0046,40.3
2.574,-0.0046,0.0022,-0.0015,-0.003,40.4
2.575,-0.003,0.0015,-0.0008,-0.0023,40.5
2.576,-0.0008,0.003,-0.0023,-0.0008,40.7
2.577,-0.0008,0.003,-0.003,0.0007,40.8
2.578,0.0007,0.0022,-0.003,0.0015,40.9
2.579,0.0007,0.003,-0.0023,0.0015,41.1
2.58,-0.0008,0.0015,-0.003,0.0015,41.2
2.581,0.0,0.0015,-0.003,0.0007,41.4
2.582,-0.0008,0.0007,-0.003,0.0052,41.4
2.583,-0.0023,-0.0008,-0.0038,0.0067,41.6
2.584,-0.0038,-0.0023,-0.0038,0.009,41.7
2.585,-0.0015,-0.003,-0.0046,0.0105,41.8
2.586,-0.0008,-0.0023,-0.0046,0.0097,41.9
2.587,-0.003,-0.0046,-0.0068,0.009,42.0
2.588,-0.003,-0.0075,-0.0083,0.0082,42.1
2.589,-0.0053,-0.0068,-0.0068,0.0082,42.2
2.59,-0.0053,-0.0046,-0.0068,0.0112,42.3
2.591,-0.0068,-0.0046,-0.0038,0.0142,42.5
2.592,-0.0053,-0.0015,-0.003,0.015,42.6
2.593,-0.0038,0.0,-0.0008,0.0165,42.7
2.594,-0.0015,-0.0015,0.0,0.0142,42.8
2.595,-0.0023,0.0007,-0.0008,0.0127,42.9
2.596,-0.003,0.0007,0.0015,0.012,43.0
2.597,-0.003,-0.0015,0.0015,0.0127,43.1
2.598,-0.0046,-0.003,0.0037,0.012,43.2
2.599,-0.0015,-0.0038,0.0045,0.0082,43.3
2.6,-0.0015,-0.003,0.0037,0.0082,43.5
2.601,-0.0015,-0.003,0.003,0.0067,43.5
2.602,-0.0008,-0.0023,0.003,0.0052,43.6
2.603,-0.0008,-0.0015,0.0015,0.003,43.6
2.604,0.0,-0.0015,0.0015,0.0022,43.7
2.605,-0.0008,-0.0023,0.0045,0.003,43.8
2.606,-0.0008,-0.0023,0.0052,0.003,43.8
2.607,0.0007,-0.0015,0.0052,0.003,43.9
2.608,0.0015,-0.0008,0.0052,0.0015,43.9
2.609,0.0015,0.0007,0.0045,0.003,44.0
2.61,0.0015,0.0037,0.0037,0.0045,44.1
2.611,-0.0008,0.0075,0.0045,0.0045,44.1
2.612,-0.0008,0.0127,0.003,0.0022,44.2
2.613,-0.0008,0.0135,0.0015,0.0015,44.2
2.614,-0.0015,0.0127,0.003,0.0007,44.3
2.615,-0.0008,0.0135,0.0022,0.0007,44.4
2.616,0.0,0.0142,0.0037,0.0,44.4
2.617,0.0007,0.015,0.0037,-0.0008,44.5
2.618,0.0007,0.0127,0.0045,0.0007,44.5
2.619,0.0007,0.009,0.0052,-0.0023,44.6
2.62,0.0,0.0082,0.0045,-0.0015,44.6
2.621,-0.0008,0.006,0.003,-0.0023,44.7
2.622,-0.0008,0.0037,0.003,-0.0023,44.7
2.623,-0.0008,0.0015,0.0045,0.0,44.7
2.624,0.0,0.0007,0.0067,-0.0015,44.7
2.625,-0.0008,-0.0015,0.0045,0.0,44.8
2.626,-0.0008,-0.006,0.003,0.0015,44.8
2.627,-0.0008,-0.0068,0.003,0.0015,44.8
2.628,-0.0008,-0.0068,0.0022,0.0022,44.8
2.629,-0.0015,-0.0053,0.003,0.0015,44.8
2.63,-0.0015,-0.0068,0.0015,0.003,44.9
2.631,-0.0015,-0.0075,0.0,0.003,44.9
2.632,-0.003,-0.0068,0.0,0.0015,44.9
2.633,-0.0015,-0.006,-0.0008,0.0007,45.0
2.634,-0.0023,-0.0053,-0.0015,-0.0008,45.0
2.635,-0.0023,-0.0053,-0.0023,-0.0015,45.0
2.636,-0.0015,-0.0046,-0.0008,-0.003,45.0
2.637,-0.0008,-0.0046,0.0,-0.0015,45.0
2.638,-0.0008,-0.0038,-0.0015,-0.0015,45.0
2.639,-0.0015,-0.003,0.0,-0.0023,45.0
2.64,0.0,-0.003,-0.0015,-0.0015,45.1
2.641,0.0037,-0.003,-0.003,-0.0008,45.1
2.642,0.0082,-0.0015,-0.003,-0.0008,45.1
2.643,0.0112,-0.0015,-0.0038,-0.003,45.1
2.644,0.0105,-0.0023,-0.0053,-0.0038,45.1
2.645,0.0097,-0.0046,-0.0046,-0.003,45.1
2.646,0.0075,-0.0046,-0.0038,-0.0023,45.1
2.647,0.0037,-0.0023,-0.0053,-0.0046,45.1
2.648,0.0015,-0.003,-0.0053,-0.0046,45.1
2.649,0.0015,-0.003,-0.0038,-0.003,45.1
2.65,0.0007,-0.0046,-0.0038,-0.003,45.1
2.651,-0.0008,-0.0083,-0.003,-0.0046,45.1
2.652,-0.0015,-0.0098,-0.0038,-0.0046,45.1
2.653,-0.0015,-0.0105,-0.0015,-0.0038,45.1
2.654,-0.003,-0.0105,0.0007,-0.0046,45.1
2.655,-0.003,-0.0105,0.0007,-0.0046,45.2
2.656,-0.0046,-0.012,-0.0008,-0.0053,45.2
2.657,-0.0046,-0.0128,-0.0015,-0.0053,45.2
2.658,-0.0046,-0.0113,-0.003,-0.006,45.2
2.659,-0.0053,-0.0105,-0.0038,-0.006,45.2
2.66,-0.0046,-0.0091,-0.003,-0.0083,45.2
2.661,-0.0046,-0.006,-0.0038,-0.0091,45.2
2.662,-0.0053,-0.0046,-0.003,-0.0098,45.1
2.663,-0.0053,-0.003,-0.0015,-0.0105,45.1
2.664,-0.0053,-0.003,-0.0008,-0.012,45.0
2.665,-0.006,-0.0015,0.0007,-0.0135,45.0
2.666,-0.0068,-0.003,0.0015,-0.012,45.0
2.667,-0.0068,-0.0038,0.0015,-0.0113,45.0
2.668,-0.0068,-0.003,0.0022,-0.0128,44.9
2.669,-0.0046,-0.0046,0.003,-0.0128,44.9
2.67,-0.0038,-0.003,0.0037,-0.0113,44.8
2.671,-0.0046,-0.0008,0.0045,-0.0113,44.8
2.672,-0.0046,0.003,0.0052,-0.0098,44.7
2.673,-0.0053,0.0045,0.0045,-0.0091,44.7
2.674,-0.0038,0.0052,0.0022,-0.0091,44.6
2.675,-0.003,0.006,0.003,-0.0083,44.6
2.676,-0.0046,0.0067,0.003,-0.0091,44.6
2.677,-0.0046,0.0082,0.0022,-0.0083,44.5
2.678,-0.0038,0.0075,0.0015,-0.006,44.5
2.679,-0.003,0.0075,0.0007,-0.0068,44.5
2.68,-0.0038,0.0075,-0.0008,-0.006,44.4
2.681,-0.0038,0.0067,-0.0015,-0.003,44.3
2.682,-0.0053,0.0052,-0.0015,-0.0015,44.2
2.683,-0.0046,0.003,-0.003,-0.0023,44.1
2.684,-0.0038,0.0045,-0.003,-0.003,44.1
2.685,-0.0023,0.0052,-0.003,-0.0015,44.0
2.686,-0.003,0.0045,-0.0015,-0.0015,43.9
2.687,-0.0038,0.0045,-0.0015,-0.0008,43.8
2.688,-0.003,0.0052,-0.0008,0.0007,43.7
2.689,-0.003,0.0045,-0.0008,0.0015,43.6
2.69,-0.0015,0.0022,-0.0008,0.0015,43.5
2.691,-0.0023,0.0045,-0.0015,0.0007,43.4
2.692,-0.003,0.0052,-0.0008,0.0,43.3
2.693,-0.003,0.003,-0.0008,0.0007,43.2
2.694,-0.003,0.0015,0.0,0.0015,43.1
2.695,-0.0046,0.003,0.0007,0.0007,43.0
2.696,-0.0038,0.0,0.003,0.003,42.9
2.697,-0.0015,-0.0015,0.0037,0.0052,42.8
2.698,-0.0015,-0.0015,0.0045,0.006,42.7
2.699,-0.003,-0.003,0.0045,0.0052,42.7
2.7,-0.0023,-0.0046,0.0045,0.006,42.5
2.701,-0.0008,-0.003,0.003,0.006,42.5
2.702,-0.0015,-0.0023,0.0015,0.0052,42.3
2.703,-0.0008,-0.0015,0.003,0.0045,42.3
2.704,-0.0015,0.0007,0.0,0.0045,42.1
2.705,-0.003,0.0007,-0.0008,0.003,42.0
2.706,-0.0015,0.0015,-0.0015,0.0,41.9
2.707,-0.0038,0.0022,-0.0046,0.0007,41.8
2.708,-0.0023,0.0015,-0.0038,0.0,41.7
2.709,-0.003,0.003,-0.003,-0.0008,41.6
2.71,-0.0038,0.0015,-0.0015,-0.0015,41.5
2.711,-0.0053,0.0045,-0.0015,-0.0023,41.4
2.712,-0.0053,0.0045,-0.0008,-0.0008,41.3
2.713,-0.0038,0.003,0.0,0.0007,41.2
2.714,-0.0038,0.0052,0.0007,0.0015,41.0
2.715,-0.0015,0.003,0.0015,0.0007,40.9
2.716,-0.0015,0.0,-0.0008,-0.0038,40.9
2.717,-0.003,-0.0015,-0.0008,-0.006,40.7
2.718,-0.0015,0.0007,-0.0008,-0.0113,40.6
2.719,-0.0015,0.0,-0.0008,-0.015,40.5
2.72,-0.0015,-0.0083,-0.0008,-0.0143,40.4
2.721,-0.0023,-0.012,0.0007,-0.0143,40.3
2.722,-0.0023,-0.0008,0.0007,-0.0128,40.1
2.723,-0.0008,0.0045,0.0022,-0.0113,40.0
2.724,0.0007,0.006,0.0015,-0.0135,39.9
2.725,0.0,0.0067,-0.0008,-0.0158,39.7
2.726,0.0007,0.0,-0.003,-0.0135,39.6
2.727,-0.0008,-0.0008,-0.0046,-0.0105,39.4
2.728,-0.0008,-0.0015,-0.0053,-0.0068,39.3
2.729,-0.0008,0.0015,-0.0068,-0.003,39.1
2.73,-0.003,0.003,-0.0053,0.0015,39.0
2.731,-0.0008,0.0067,-0.0053,0.0067,38.9
2.732,0.0007,0.0202,-0.0046,0.0135,38.7
2.733,-0.0015,0.0277,-0.003,0.018,38.6
2.734,0.0007,0.0165,-0.0046,0.0112,38.5
2.735,0.0015,0.0015,-0.0008,0.006,38.3
2.736,0.0022,0.0,-0.0008,0.0067,38.2
2.737,0.0015,-0.0015,-0.0008,0.0052,38.0
2.738,0.0007,-0.003,-0.0008,0.0045,37.9
2.739,-0.0008,-0.0053,-0.0008,0.0045,37.8
2.74,-0.003,-0.0068,-0.0008,0.006,37.6
2.741,-0.0023,-0.0105,0.0007,0.0052,37.4
2.742,-0.0015,-0.0143,0.003,0.003,37.3
2.743,-0.003,-0.0248,0.0037,0.0,37.1
2.744,-0.003,-0.0346,0.003,-0.0015,36.9
2.745,-0.0023,-0.0293,0.0015,0.0007,36.7
2.746,-0.003,-0.0248,0.0015,0.0007,36.5
2.747,-0.0023,-0.0165,0.0007,0.0022,36.4
2.748,-0.0023,-0.0083,-0.0008,0.0045,36.2
2.749,-0.003,-0.0038,0.0007,0.0075,36.0
2.75,-0.0038,0.0217,0.0022,0.0142,35.8
2.751,-0.0015,0.0675,0.0015,0.018,35.7
2.752,-0.0008,0.1012,0.0,0.0105,35.5
2.753,-0.0008,0.0585,-0.0015,-0.0008,35.3
2.754,-0.0008,-0.0256,-0.0023,-0.003,35.1
2.755,-0.0008,-0.0383,-0.0008,-0.0023,35.0
2.756,-0.0008,-0.0398,-0.0015,-0.0068,34.8
2.757,-0.0023,-0.0675,-0.0053,-0.0091,34.6
2.758,-0.0015,-0.0458,-0.0053,-0.0023,34.4
2.759,-0.0008,-0.0173,-0.006,0.0052,34.2
2.76,-0.0008,0.0262,-0.0053,0.009,34.0
2.761,-0.0023,0.0847,-0.0046,0.0165,33.8
2.762,-0.0038,0.0547,-0.003,0.0127,33.6
2.763,-0.003,0.0007,-0.0008,0.0052,33.4
2.764,-0.003,-0.012,-0.0008,0.0045,33.2
2.765,-0.003,-0.0278,-0.0008,0.0052,32.9
2.766,-0.003,-0.0293,0.0,0.003,32.7
2.767,-0.003,-0.0083,-0.0008,0.0037,32.5
2.768,-0.003,0.009,0.0007,0.0067,32.3
2.769,-0.0023,0.0195,0.0015,0.0067,32.0
2.77,-0.0015,0.0075,0.0,-0.003,31.8
2.771,-0.0046,-0.0353,-0.0015,-0.0203,31.5
2.772,-0.0038,-0.048,-0.003,-0.0181,31.3
2.773,-0.003,-0.0338,-0.003,-0.012,31.1
2.774,-0.003,-0.0383,-0.0053,-0.0105,30.9
2.775,-0.0015,-0.0383,-0.003,-0.0046,30.6
2.776,-0.0015,-0.0383,-0.0008,-0.0008,30.4
2.777,-0.0008,-0.0285,0.0007,0.0052,30.2
2.778,0.0,-0.0195,0.003,0.0142,30.0
2.779,0.0,-0.021,0.0015,0.018,29.7
2.78,0.0,-0.0233,0.0007,0.0127,29.5
2.781,0.0007,0.0247,0.0015,0.0135,29.2
2.782,-0.0008,0.0915,0.0015,0.015,29.0
2.783,-0.0008,0.057,0.0022,0.0067,28.8
2.784,-0.0015,0.0007,0.0007,-0.0008,28.5
2.785,-0.0015,-0.0203,0.0,-0.0068,28.2
2.786,0.0015,-0.0398,0.0045,-0.0053,27.9
2.787,0.0022,-0.0443,0.0052,-0.0046,27.7
2.788,-0.0015,-0.0511,0.0007,-0.0135,27.4
2.789,-0.003,-0.057,0.0,-0.0218,27.2
2.79,-0.0008,-0.075,-0.0015,-0.027,26.9
2.791,0.0,-0.0908,-0.0008,-0.0225,26.7
2.792,0.0015,-0.0713,0.0,-0.0083,26.4
2.793,0.003,-0.0361,0.0015,0.0082,26.1
2.794,0.003,0.0232,0.0015,0.0202,25.9
2.795,0.0,0.0292,0.0007,0.0067,25.6
2.796,-0.003,-0.0398,0.0015,-0.0083,25.4
2.797,-0.0038,0.0487,0.003,0.0037,25.1
2.798,-0.0023,0.2062,0.0075,0.0097,24.8
2.799,-0.003,0.186,0.0052,0.0082,24.6
2.8,-0.0053,0.0787,0.0015,-0.0068,24.3
2.801,-0.006,-0.0165,0.0007,-0.0128,24.1
2.802,-0.0053,0.0225,0.0045,0.0,23.8
2.803,-0.0046,0.153,0.0045,0.006,23.6
2.804,-0.0046,0.1957,0.0015,0.0052,23.3
2.805,-0.0015,0.1035,0.003,-0.0046,23.0
2.806,0.0007,-0.003,0.0022,-0.0068,22.8
2.807,0.003,-0.0353,-0.0008,-0.0068,22.5
2.808,0.0045,-0.0593,-0.003,-0.0105,22.3
2.809,0.0037,-0.0495,-0.003,-0.012,22.0
2.81,0.0045,-0.0165,-0.0015,-0.0158,21.7
2.811,0.003,-0.0181,0.0,-0.0181,21.5
2.812,0.0007,-0.0698,0.0015,-0.0203,21.2
2.813,-0.0008,-0.0893,0.0,-0.0203,21.0
2.814,-0.0068,-0.0856,-0.0015,-0.0181,20.7
2.815,-0.0158,-0.075,0.0007,-0.0091,20.5
2.816,-0.0165,-0.0346,0.0015,-0.0105,20.2
2.817,-0.0068,-0.003,0.0015,-0.0256,19.9
2.818,0.006,-0.0091,0.003,-0.0263,19.7
2.819,0.0135,0.003,0.003,-0.0165,19.4
2.82,0.0105,0.0367,0.0037,-0.0046,19.1
2.821,0.0082,0.0097,0.003,0.0157,18.9
2.822,0.0052,0.0067,0.0015,0.0135,18.7
2.823,-0.0015,-0.0091,0.0015,0.0127,18.4
2.824,-0.0046,0.0015,0.0,0.0397,18.2
2.825,-0.0038,0.0352,0.0022,0.06,18.0
2.826,-0.0015,0.0075,0.0052,0.0592,17.7
2.827,-0.0008,0.018,0.0052,0.0315,17.5
2.828,-0.003,0.0195,0.003,0.0082,17.2
2.829,-0.0105,0.0052,0.0007,0.0052,17.0
2.83,-0.012,-0.0263,-0.0015,-0.0083,16.7
2.831,-0.0091,-0.048,-0.003,-0.0091,16.5
2.832,-0.0068,-0.0293,-0.003,-0.0046,16.2
2.833,-0.0068,-0.012,-0.0008,-0.003,16.0
2.834,-0.0075,-0.0053,0.0007,0.003,15.7
2.835,-0.0083,-0.0353,0.0015,0.0067,15.5
2.836,-0.0105,-0.0383,0.003,0.0165,15.3
2.837,-0.0105,-0.0375,0.003,0.0112,15.0
2.838,-0.0083,-0.0623,0.0022,-0.0053,14.8
2.839,-0.0068,-0.0488,0.0007,-0.012,14.5
2.84,-0.0053,-0.0383,-0.0008,-0.012,14.2
2.841,-0.0068,-0.0398,-0.0015,-0.012,14.0
2.842,-0.0083,-0.0046,-0.003,-0.0225,13.9
2.843,-0.0091,0.0592,-0.0023,-0.0436,13.6
2.844,-0.0068,0.033,-0.0015,-0.0525,13.5
2.845,-0.0023,-0.0818,-0.0023,-0.0495,13.2
2.846,-0.0008,-0.117,-0.0015,-0.0465,13.0
2.847,0.0015,-0.1223,-0.0008,-0.033,12.9
2.848,-0.0008,-0.1095,0.0007,-0.0113,12.6
2.849,-0.0023,-0.0675,0.0015,0.0,12.5
2.85,-0.0015,0.0405,0.0045,0.0165,12.2
2.851,0.0,0.204,0.0045,0.042,12.0
2.852,0.0007,0.144,0.0015,0.0577,11.8
2.853,-0.0008,0.0795,0.0007,0.0465,11.6
2.854,-0.0015,0.0855,0.003,0.0322,11.4
2.855,-0.0008,0.0195,0.0015,0.0382,11.2
2.856,0.0015,0.0555,-0.0046,0.03,11.0
2.857,0.003,0.1537,-0.0068,0.0202,10.8
2.858,0.003,0.246,-0.0068,0.0232,10.6
2.859,0.003,0.1792,-0.0068,0.0082,10.4
2.86,0.0045,0.0307,-0.0046,-0.0225,10.2
2.861,0.0037,-0.0968,-0.0091,-0.0375,10.0
2.862,-0.0023,-0.1545,-0.0113,-0.0503,9.9
2.863,-0.0075,-0.1523,-0.0105,-0.057,9.7
2.864,-0.0053,-0.1426,-0.0091,-0.0473,9.5
2.865,0.0007,-0.1185,-0.006,-0.045,9.4
2.866,0.0015,-0.0818,-0.0046,-0.0158,9.2
2.867,0.0007,0.054,-0.0015,0.0195,9.0
2.868,0.0,0.1327,-0.0008,0.0345,8.9
2.869,0.0007,0.1732,0.0007,0.054,8.7
2.87,-0.0053,0.15,-0.003,0.0705,8.5
2.871,-0.0083,0.027,-0.0046,0.0652,8.4
2.872,0.003,0.0157,0.0022,0.0345,8.2
2.873,0.0165,0.0765,0.0052,0.0255,8.1
2.874,0.024,0.0705,0.0075,0.033,7.9
2.875,0.0202,-0.0346,0.0067,0.018,7.7
2.876,0.0082,-0.0691,0.0015,-0.0008,7.6
2.877,-0.0046,-0.06,-0.003,-0.0195,7.4
2.878,-0.0143,-0.1095,-0.003,-0.0368,7.2
2.879,-0.024,-0.1185,0.003,-0.0368,7.1
2.88,-0.03,-0.1125,0.0067,-0.0165,6.8
2.881,-0.0285,-0.099,0.0097,-0.0053,6.7
2.882,-0.0293,-0.0803,0.009,-0.0083,6.6
2.883,-0.0293,-0.0593,0.0067,-0.003,6.5
2.884,-0.0195,-0.0113,0.0067,0.0052,6.4
2.885,-0.003,0.0345,0.0052,0.0165,6.3
2.886,0.0037,0.0772,0.003,0.0292,6.1
2.887,0.0022,0.1087,0.0007,0.0217,6.0
2.888,0.0022,0.0765,0.0007,-0.012,5.8
2.889,0.0015,0.0105,0.0037,-0.0368,5.7
2.89,0.0067,-0.0653,0.0045,-0.0443,5.6
2.891,0.0105,-0.0818,0.0045,-0.0503,5.5
2.892,0.0142,-0.0833,0.0037,-0.054,5.3
2.893,0.015,-0.1185,0.0007,-0.0458,5.2
2.894,0.0105,-0.0593,0.003,-0.0195,5.1
2.895,0.0112,0.0075,0.0097,0.0075,4.9
2.896,0.012,0.057,0.0105,0.0255,4.8
2.897,0.0082,0.0277,0.003,0.0345,4.7
2.898,0.0037,-0.0181,-0.0008,0.018,4.6
2.899,-0.0015,0.141,-0.003,0.0142,4.5
2.9,-0.0046,0.2692,-0.0046,0.018,4.3
2.901,-0.0053,0.114,-0.0038,0.003,4.2
2.902,-0.0083,-0.0923,-0.0046,0.0,4.2
2.903,-0.0143,-0.0788,-0.0068,-0.0105,4.1
2.904,-0.0195,-0.1028,-0.0105,-0.0091,4.0
2.905,-0.012,-0.1058,-0.0105,-0.0046,3.9
2.906,-0.0038,-0.0555,-0.0068,-0.0158,3.9
2.907,0.0007,0.0015,0.0037,-0.0053,3.8
2.908,0.0165,0.126,0.009,0.0,3.7
2.909,0.024,0.1455,0.0052,0.009,3.6
2.91,0.0112,0.1185,0.0037,-0.003,3.6
2.911,-0.0015,-0.0195,0.0022,-0.0158,3.5
2.912,-0.0075,-0.063,0.0015,-0.0158,3.4
2.913,-0.0173,-0.063,-0.0038,-0.0413,3.3
2.914,-0.0263,-0.1245,-0.0105,-0.0465,3.2
2.915,-0.0278,-0.066,-0.0113,-0.045,3.1
2.916,-0.021,-0.0383,0.0037,-0.0428,3.1
2.917,-0.0091,0.0225,0.018,-0.0233,3.0
2.918,-0.006,0.0532,0.012,-0.0015,2.9
2.919,0.0067,0.012,0.0,0.0075,2.9
2.92,0.0217,-0.0203,-0.0113,0.0195,2.7
2.921,0.03,-0.0053,-0.0158,0.0585,2.7
2.922,0.0345,0.045,-0.0098,0.069,2.7
2.923,0.0187,0.0705,-0.0105,0.0457,2.6
2.924,0.0097,0.1012,-0.0135,0.0315,2.6
2.925,0.0082,0.0735,-0.0053,0.0217,2.6
2.926,0.0037,0.0592,-0.0008,-0.0015,2.6
2.927,-0.0008,-0.024,0.0007,-0.0308,2.5
2.928,-0.0053,-0.1523,-0.003,-0.0458,2.5
2.929,-0.0105,-0.2041,-0.006,-0.0555,2.4
2.93,-0.0218,-0.2213,-0.0091,-0.0465,2.4
2.931,-0.0346,-0.1515,-0.0113,-0.0293,2.4
2.932,-0.03,-0.1313,-0.0091,-0.015,2.3
2.933,-0.0181,-0.0353,-0.0053,0.027,2.3
2.934,-0.015,0.1215,0.0007,0.0697,2.2
2.935,-0.0105,0.3112,0.0075,0.1035,2.2
2.936,-0.003,0.4897,0.0157,0.1087,2.2
2.937,0.0045,0.3637,0.018,0.0855,2.2
2.938,0.006,0.138,0.012,0.0337,2.1
2.939,0.009,-0.024,0.0082,-0.0233,2.1
2.94,0.0172,-0.0638,0.0052,-0.0308,2.0
2.941,0.0187,-0.0533,0.009,-0.0346,2.0
2.942,0.0217,-0.0645,0.0202,-0.0338,2.0
2.943,0.0105,-0.0383,0.0202,-0.027,2.1
2.944,-0.0181,-0.0585,0.009,-0.0346,2.1
2.945,-0.024,-0.054,-0.0008,-0.033,2.1
2.946,-0.0038,-0.0555,-0.0083,-0.0181,2.2
2.947,0.0232,-0.0488,-0.0105,0.0007,2.2
2.948,0.018,-0.0443,-0.012,-0.0015,2.2
2.949,-0.0008,-0.0825,-0.0046,-0.0091,2.2
2.95,0.0007,-0.1013,0.0,-0.0158,2.3
2.951,0.009,-0.0938,-0.0068,-0.0165,2.3
2.952,0.0277,-0.057,-0.0091,-0.015,2.3
2.953,0.081,-0.057,-0.0091,-0.0105,2.3
2.954,0.114,-0.0548,-0.0053,0.003,2.4
2.955,0.0517,-0.0533,-0.0038,-0.0128,2.4
2.956,-0.0068,-0.0803,-0.0038,-0.0315,2.4
2.957,-0.0338,-0.0938,-0.0046,-0.0413,2.5
2.958,-0.06,-0.075,-0.0068,-0.0315,2.5
2.959,-0.054,-0.0308,-0.0053,-0.0053,2.5
2.96,-0.0668,0.003,-0.0053,0.0082,2.6
2.961,-0.0721,0.0367,-0.0068,0.0405,2.6
2.962,-0.0706,0.0862,-0.0068,0.0652,2.7
2.963,-0.0871,0.1845,-0.0046,0.0652,2.8
2.964,-0.0698,0.2062,-0.0008,0.048,2.9
2.965,-0.0165,0.1102,0.0,0.0315,3.0
2.966,0.0315,0.036,0.0015,0.0022,3.1
2.967,0.0562,-0.1028,0.0075,-0.0346,3.1
2.968,0.0577,-0.09,0.0075,-0.0293,3.2
2.969,0.0405,-0.0158,-0.0083,-0.0375,3.3
2.97,0.0285,-0.0706,-0.0158,-0.03,3.4
2.971,0.0367,-0.0405,-0.0188,-0.0173,3.4
2.972,0.0457,-0.0256,-0.0181,-0.0068,3.5
2.973,0.033,0.0495,-0.0023,0.0097,3.6
2.974,0.0105,0.1125,0.0015,-0.0053,3.6
2.975,-0.0091,0.0705,0.0105,0.0075,3.7
2.976,-0.0195,0.0345,0.018,0.0232,3.8
2.977,-0.0278,0.0165,0.0255,0.027,3.9
2.978,-0.0368,0.0345,0.027,0.0142,4.0
2.979,-0.03,0.0307,0.0202,-0.0091,4.0
2.98,-0.024,-0.0038,0.0202,-0.012,4.1
2.981,-0.0256,-0.012,0.018,-0.0091,4.2
2.982,-0.0285,0.084,0.0112,0.0097,4.2
2.983,-0.033,0.0975,0.0045,0.0202,4.3
2.984,-0.042,-0.0555,0.009,0.0195,4.3
2.985,-0.033,-0.075,0.0172,0.018,4.4
2.986,-0.0053,-0.0368,0.0195,0.012,4.4
2.987,0.0037,-0.021,0.003,0.009,4.5
2.988,0.0142,-0.0046,-0.0091,0.0052,4.5
2.989,0.033,-0.0143,-0.0053,-0.0046,4.5
2.99,0.0315,0.033,-0.0008,-0.021,4.6
2.991,0.003,-0.027,0.0037,-0.039,4.7
2.992,-0.0098,-0.1088,-0.0075,-0.054,4.7
2.993,0.0157,-0.1058,-0.0135,-0.063,4.8
2.994,0.0232,-0.1433,-0.0083,-0.0668,4.8
2.995,0.0465,-0.1515,-0.0075,-0.0728,4.9
2.996,0.087,-0.1268,-0.0105,-0.0683,4.9
2.997,0.0832,-0.1148,-0.0053,-0.0361,4.9
2.998,0.0765,-0.0368,0.0127,0.0052,5.0
2.999,0.0667,0.2062,0.039,0.063,5.0
3.0,0.0375,0.3952,0.0502,0.129,5.1
3.001,-0.0046,0.2797,0.018,0.1485,5.0
3.002,-0.0405,0.0742,-0.0135,0.0877,5.0
3.003,-0.0593,-0.0398,-0.0256,-0.0105,4.9
3.004,-0.0638,-0.0368,-0.024,-0.0278,4.8
3.005,-0.0443,0.036,-0.0083,-0.0128,4.7
3.006,-0.0383,-0.0143,0.003,-0.0436,4.7
3.007,-0.027,-0.0091,0.0157,-0.0473,4.6
3.008,-0.0015,0.0697,0.0195,-0.0256,4.5
3.009,-0.0098,-0.0256,0.0082,-0.012,4.5
3.01,-0.0195,-0.0825,-0.0143,-0.0068,4.4
3.011,-0.03,-0.0871,-0.0278,-0.0135,4.3
3.012,-0.0346,-0.114,-0.0188,-0.0375,4.2
3.013,-0.012,-0.0503,-0.0083,-0.0323,4.1
3.014,-0.0091,-0.0105,-0.0008,-0.003,4.0
3.015,-0.0248,-0.0383,-0.0023,0.015,4.0
3.016,-0.0375,-0.084,-0.0008,0.0232,3.9
3.017,-0.0293,-0.0743,0.0045,0.0045,3.8
3.018,-0.0068,-0.0346,0.0037,-0.0046,3.7
3.019,-0.0008,0.0157,0.0067,0.006,3.7
3.02,-0.0038,0.0877,0.0157,0.018,3.6
3.021,-0.0105,0.042,0.0172,0.0202,3.5
3.022,0.0142,-0.0158,0.0202,0.03,3.5
3.023,0.0817,0.0157,0.0202,0.0285,3.4
3.024,0.105,-0.012,0.0142,-0.0008,3.3
3.025,0.0375,-0.0721,0.0105,-0.0015,3.2
3.026,-0.0105,-0.0368,0.0075,0.009,3.2
3.027,-0.039,-0.0015,0.0037,0.0105,3.1
3.028,-0.0818,-0.0225,0.0022,0.0127,3.1
3.029,-0.0825,0.0045,0.009,0.0277,3.0
3.03,-0.063,0.0502,0.0112,0.0517,2.9
3.031,-0.0465,0.0907,0.012,0.0675,2.8
3.032,-0.066,0.0892,0.015,0.0735,2.8
3.033,-0.0428,0.0442,0.0165,0.039,2.7
3.034,0.0045,0.012,0.0165,0.0045,2.6
3.035,-0.0083,-0.0023,0.0067,0.0105,2.6
3.036,-0.0248,0.0045,-0.0046,0.0097,2.5
3.037,-0.0075,-0.0053,0.0007,0.0067,2.5
3.038,0.0345,-0.003,-0.0023,0.0007,2.4
3.039,0.0442,-0.0083,-0.0225,-0.0091,2.3
3.04,0.0525,-0.0143,-0.03,-0.0053,2.2
3.041,0.093,-0.0105,-0.0315,-0.0053,2.3
